participant_id,sender,sender_type,sender_id,timestamp,meta,,correct,correctPositions,duration,ended_on,lab_name,options,participant_age,participant_gender,participant_group,picture,response,responses,span,span_length,strategy_cumulative,strategy_no_choice,strategy_none,strategy_rehearse,strategy_response,strategy_visual,time_commit,time_duration,time_end,time_render,time_run,time_show,time_switch,timing,trial type,url
345,Participant ID,html.Form,0,2018-12-14T20:15:54.960Z,"{""labjs_version"":""2018.0.3"",""labjs_build"":{""flavor"":""production"",""commit"":""ef20833e19480399c902f802c41a5bd8e5b924c3""},""location"":""https://labjs.felixhenninger.com/api/labjs_preview/index.html"",""userAgent"":""Mozilla/5.0 (Windows NT 6.1; Win64; x64) AppleWebKit/537.36 (KHTML, like Gecko) Chrome/70.0.3538.110 Safari/537.36"",""platform"":""Win32"",""language"":""en-US"",""locale"":""en-US"",""timeZone"":""America/Chicago"",""timezoneOffset"":360,""screen_width"":1920,""screen_height"":1080,""scroll_width"":1193,""scroll_height"":736,""window_innerWidth"":1209,""window_innerHeight"":760,""devicePixelRatio"":1}",,,,14651.082,form submission,E,,89,1,4,,,,,,,,,,,,15162,,15162,460.92,482,510.918,15226.996,,,{}
,Welcome,html.Screen,1,2018-12-14T20:15:57.307Z,,,,,2282.004,response,,,,,,,continue,,,,,,,,,,17509,,17509,15160.332,15162,15226.996,17543.57,,,
,Get-set-go,html.Screen,2_0_0,2018-12-14T20:15:58.256Z,,,,,914.43,response,,,,,,,continue,,"[""flag"",""apple""]",2,,,,,,,18458,,18458,17493.572,17509,17543.57,18460.2,,practice,
,Blank Screen,html.Screen,2_0_1,2018-12-14T20:15:59.244Z,,,,,1033.292,timeout,,,,,,,,,"[""flag"",""apple""]",2,,,,,,,19446,,19443.494,18443.534,18458,18460.2,19493.492,,practice,
,Learning phase,flow.Loop,2_0_2,2018-12-14T20:16:03.327Z,,,,,4033.172,completion,,"[""flower"",""moon"",""apple"",""pencil"",""comb"",""flag"",""owl""]",,,,,,,"[""flag"",""apple""]",2,,,,,,,23529,,23526.664,19443.494,19446,19493.492,23559.996,,practice,
,Blank Screen,html.Screen,2_0_3,2018-12-14T20:16:04.343Z,,,,,1016.626,timeout,,,,,,,,,"[""flag"",""apple""]",2,,,,,,,24545,,24543.29,23543.33,23529,23559.996,24576.622,,practice,
,Recall,html.Screen,2_0_4,2018-12-14T20:16:21.189Z,,,TRUE,"[true,true]",16798.378,done,,"[""moon"",""apple"",""owl"",""flag"",""pencil"",""flower"",""comb""]",,,,,,"[""flag"",""apple""]","[""flag"",""apple""]",2,,,,,,,41391,,41375,24543.29,24545,24576.622,41409.282,,practice,
,Trial sequence for Recall,flow.Sequence,2_0,2018-12-14T20:16:21.190Z,,,,,23831.43,completion,,,,,,,,,"[""flag"",""apple""]",2,,,,,,,41392,,41375,17493.572,17509,17543.57,41409.282,,practice,
,Get-set-go,html.Screen,2_1_0,2018-12-14T20:16:25.854Z,,,,,4646.718,response,,,,,,,continue,,"[""flag"",""owl"",""comb"",""moon""]",4,,,,,,,46056,,46056,41375.95,41393,41409.282,46075.762,,practice,
,Blank Screen,html.Screen,2_1_1,2018-12-14T20:16:26.859Z,,,,,999.96,timeout,,,,,,,,,"[""flag"",""owl"",""comb"",""moon""]",4,,,,,,,47061,,47059.056,46042.43,46056,46075.762,47075.722,,practice,
,Learning phase,flow.Loop,2_1_2,2018-12-14T20:16:34.909Z,,,,,8033.012,completion,,"[""moon"",""flag"",""apple"",""comb"",""pencil"",""owl"",""flower""]",,,,,,,"[""flag"",""owl"",""comb"",""moon""]",4,,,,,,,55111,,55108.734,47059.056,47061,47075.722,55142.066,,practice,
,Blank Screen,html.Screen,2_1_3,2018-12-14T20:16:35.925Z,,,,,1016.626,timeout,,,,,,,,,"[""flag"",""owl"",""comb"",""moon""]",4,,,,,,,56127,,56125.36,55125.4,55114,55142.066,56158.692,,practice,
,Recall,html.Screen,2_1_4,2018-12-14T20:16:42.322Z,,,TRUE,"[true,true,true,true]",6365.308,done,,"[""flag"",""flower"",""owl"",""pencil"",""moon"",""comb"",""apple""]",,,,,,"[""flag"",""owl"",""comb"",""moon""]","[""flag"",""owl"",""comb"",""moon""]",4,,,,,,,62524,,62524,56125.36,56128,56158.692,62558.436,,practice,
,Trial sequence for Recall,flow.Sequence,2_1,2018-12-14T20:16:42.322Z,,,,,21114.718,completion,,,,,,,,,"[""flag"",""owl"",""comb"",""moon""]",4,,,,,,,62524,,62524,41375.95,41392,41409.282,62558.436,,practice,
,Practice picture span task,flow.Loop,2,2018-12-14T20:16:42.322Z,,,,,44980.43,completion,,,,,,,,,,,,,,,,,62524,,62524,17493.572,17509,17543.57,62558.436,,,
,Ready to begin?,html.Screen,3,2018-12-14T20:16:46.320Z,,,,,3963.564,response,,,,,,,continue,,,,,,,,,,66522,,66522,62508.438,62524,62558.436,66558.276,,,
,Visor Practice,html.Screen,4,2018-12-14T20:16:49.571Z,,,,,3215.724,response,,,,,,,continue,,,,,,,,,,69774,,69774,66508.278,66522,66558.276,69774.814,,,
,Get-set-go,html.Screen,5_0_0_0,2018-12-14T20:16:50.624Z,,,,,1051.186,response,,,,,,,continue,,"[""flag"",""pencil""]",2,,,,,,,70826,0,70826,69758.148,69774,69774.814,70841.438,immediate,experimental,
,Blank Screen,html.Screen,5_0_0_1,2018-12-14T20:16:51.624Z,,,,,999.96,timeout,,,,,,,,,"[""flag"",""pencil""]",2,,,,,,,71826,0,71824.732,70824.772,70826,70841.438,71841.398,immediate,experimental,
,Learning phase,flow.Loop,5_0_0_2,2018-12-14T20:16:55.642Z,,,,,3999.84,completion,,"[""moon"",""apple"",""pencil"",""flag"",""comb"",""flower"",""owl""]",,,,,,,"[""flag"",""pencil""]",2,,,,,,,75844,0,75841.238,71824.732,71826,71841.398,75874.57,immediate,experimental,
,Blank Screen,html.Screen,5_0_0_3,2018-12-14T20:16:56.658Z,,,,,1016.626,timeout,,,,,,,,,"[""flag"",""pencil""]",2,,,,,,,76860,0,76857.864,75857.904,75845,75874.57,76891.196,immediate,experimental,
,Visor Instruction for delay,canvas.Screen,5_0_0_4,2018-12-14T20:16:56.660Z,,,,,NaN,skipped,,,,,,,,,"[""flag"",""pencil""]",2,,,,,,,76862,0,76857.864,,76860,,76891.196,immediate,experimental,
,Recall,html.Screen,5_0_0_5,2018-12-14T20:17:02.595Z,,,TRUE,"[true,true]",5903.804,done,,"[""flag"",""pencil"",""comb"",""flower"",""owl"",""moon"",""apple""]",,,,,,"[""flag"",""pencil""]","[""flag"",""pencil""]",2,,,,,,,82797,0,82795,76857.864,76862,76891.196,82824.292,immediate,experimental,
,Trial sequence for Recall,flow.Sequence,5_0_0,2018-12-14T20:17:02.598Z,,,,,13020.186,completion,,,,,,,,,"[""flag"",""pencil""]",2,,,,,,,82800,0,82795,69758.148,69774,69774.814,82824.292,immediate,experimental,
,Get-set-go,html.Screen,5_0_1_0,2018-12-14T20:17:04.222Z,,,,,1600.708,response,,,,,,,continue,,"[""owl"",""flower""]",2,,,,,,,84425,0,84425,82807.626,82800,82824.292,84440.894,immediate,experimental,
,Blank Screen,html.Screen,5_0_1_1,2018-12-14T20:17:05.225Z,,,,,999.96,timeout,,,,,,,,,"[""owl"",""flower""]",2,,,,,,,85427,0,85424.188,84424.228,84425,84440.894,85440.854,immediate,experimental,
,Learning phase,flow.Loop,5_0_1_2,2018-12-14T20:17:09.241Z,,,,,3999.84,completion,,"[""owl"",""apple"",""comb"",""pencil"",""flower"",""moon"",""flag""]",,,,,,,"[""owl"",""flower""]",2,,,,,,,89443,0,89440.694,85424.188,85428,85440.854,89474.026,immediate,experimental,
,Blank Screen,html.Screen,5_0_1_3,2018-12-14T20:17:10.257Z,,,,,1016.626,timeout,,,,,,,,,"[""owl"",""flower""]",2,,,,,,,90459,0,90457.32,89457.36,89444,89474.026,90490.652,immediate,experimental,
,Visor Instruction for delay,canvas.Screen,5_0_1_4,2018-12-14T20:17:10.259Z,,,,,NaN,skipped,,,,,,,,,"[""owl"",""flower""]",2,,,,,,,90461,0,90457.32,,90460,,90490.652,immediate,experimental,
,Recall,html.Screen,5_0_1_5,2018-12-14T20:17:13.967Z,,,TRUE,"[true,true]",3678.348,done,,"[""moon"",""owl"",""apple"",""flower"",""comb"",""flag"",""pencil""]",,,,,,"[""owl"",""flower""]","[""owl"",""flower""]",2,,,,,,,94169,0,94169,90457.32,90461,90490.652,94190.504,immediate,experimental,
,Trial sequence for Recall,flow.Sequence,5_0_1,2018-12-14T20:17:13.967Z,,,,,11344.708,completion,,,,,,,,,"[""owl"",""flower""]",2,,,,,,,94169,0,94169,82807.626,82800,82824.292,94190.504,immediate,experimental,
,Get-set-go,html.Screen,5_0_2_0,2018-12-14T20:17:16.301Z,,,,,2312.496,response,,,,,,,continue,,"[""owl"",""apple"",""pencil""]",3,,,,,,,96503,0,96503,94157.172,94169,94190.504,96507.078,immediate,experimental,
,Blank Screen,html.Screen,5_0_2_1,2018-12-14T20:17:17.290Z,,,,,999.96,timeout,,,,,,,,,"[""owl"",""apple"",""pencil""]",3,,,,,,,97493,0,97490.372,96490.412,96503,96507.078,97507.038,immediate,experimental,
,Learning phase,flow.Loop,5_0_2_2,2018-12-14T20:17:23.323Z,,,,,6016.426,completion,,"[""flower"",""pencil"",""apple"",""comb"",""owl"",""flag"",""moon""]",,,,,,,"[""owl"",""apple"",""pencil""]",3,,,,,,,103525,0,103523.464,97490.372,97493,97507.038,103556.796,immediate,experimental,
,Blank Screen,html.Screen,5_0_2_3,2018-12-14T20:17:24.340Z,,,,,999.96,timeout,,,,,,,,,"[""owl"",""apple"",""pencil""]",3,,,,,,,104542,0,104540.09,103540.13,103527,103556.796,104556.756,immediate,experimental,
,Visor Instruction for delay,canvas.Screen,5_0_2_4,2018-12-14T20:17:24.340Z,,,,,NaN,skipped,,,,,,,,,"[""owl"",""apple"",""pencil""]",3,,,,,,,104542,0,104540.09,,104542,,104556.756,immediate,experimental,
,Recall,html.Screen,5_0_2_5,2018-12-14T20:17:29.985Z,,,TRUE,"[true,true,true]",5630.244,done,,"[""flower"",""flag"",""pencil"",""owl"",""moon"",""comb"",""apple""]",,,,,,"[""owl"",""apple"",""pencil""]","[""owl"",""apple"",""pencil""]",3,,,,,,,110187,0,110187,104540.09,104543,104556.756,110223.196,immediate,experimental,
,Trial sequence for Recall,flow.Sequence,5_0_2,2018-12-14T20:17:29.985Z,,,,,15996.496,completion,,,,,,,,,"[""owl"",""apple"",""pencil""]",3,,,,,,,110187,0,110187,94157.172,94169,94190.504,110223.196,immediate,experimental,
,Get-set-go,html.Screen,5_0_3_0,2018-12-14T20:17:31.205Z,,,,,1183.804,response,,,,,,,continue,,"[""flower"",""apple"",""owl""]",3,,,,,,,111407,0,111407,110189.864,110187,110223.196,111439.814,immediate,experimental,
,Blank Screen,html.Screen,5_0_3_1,2018-12-14T20:17:32.224Z,,,,,999.96,timeout,,,,,,,,,"[""flower"",""apple"",""owl""]",3,,,,,,,112426,0,112423.108,111406.482,111407,111439.814,112439.774,immediate,experimental,
,Learning phase,flow.Loop,5_0_3_2,2018-12-14T20:17:38.239Z,,,,,5999.76,completion,,"[""owl"",""moon"",""comb"",""pencil"",""flower"",""apple"",""flag""]",,,,,,,"[""flower"",""apple"",""owl""]",3,,,,,,,118441,0,118439.534,112423.108,112426,112439.774,118472.866,immediate,experimental,
,Blank Screen,html.Screen,5_0_3_3,2018-12-14T20:17:39.257Z,,,,,999.96,timeout,,,,,,,,,"[""flower"",""apple"",""owl""]",3,,,,,,,119458,0,119456.16,118456.2,118441,118472.866,119472.826,immediate,experimental,
,Visor Instruction for delay,canvas.Screen,5_0_3_4,2018-12-14T20:17:39.257Z,,,,,NaN,skipped,,,,,,,,,"[""flower"",""apple"",""owl""]",3,,,,,,,119459,0,119456.16,,119459,,119472.826,immediate,experimental,
,Recall,html.Screen,5_0_3_5,2018-12-14T20:17:44.649Z,,,FALSE,"[true,true,false]",5379.174,done,,"[""flower"",""apple"",""owl"",""pencil"",""comb"",""flag"",""moon""]",,,,,,"[""flower"",""apple"",""pencil""]","[""flower"",""apple"",""owl""]",3,,,,,,,124852,0,124852,119456.16,119460,119472.826,124872.61,immediate,experimental,
,Trial sequence for Recall,flow.Sequence,5_0_3,2018-12-14T20:17:44.649Z,,,,,14628.804,completion,,,,,,,,,"[""flower"",""apple"",""owl""]",3,,,,,,,124852,0,124852,110189.864,110187,110223.196,124872.61,immediate,experimental,
,Get-set-go,html.Screen,5_0_4_0,2018-12-14T20:17:46.152Z,,,,,1481.39,response,,,,,,,continue,,"[""flag"",""moon"",""flower"",""comb""]",4,,,,,,,126354,0,126354,124839.278,124852,124872.61,126372.55,immediate,experimental,
,Blank Screen,html.Screen,5_0_4_1,2018-12-14T20:17:47.155Z,,,,,999.96,timeout,,,,,,,,,"[""flag"",""moon"",""flower"",""comb""]",4,,,,,,,127357,0,127355.844,126355.884,126354,126372.55,127372.51,immediate,experimental,
,Learning phase,flow.Loop,5_0_4_2,2018-12-14T20:17:55.188Z,,,,,8016.346,completion,,"[""flower"",""owl"",""comb"",""moon"",""apple"",""pencil"",""flag""]",,,,,,,"[""flag"",""moon"",""flower"",""comb""]",4,,,,,,,135390,0,135388.856,127355.844,127358,127372.51,135422.188,immediate,experimental,
,Blank Screen,html.Screen,5_0_4_3,2018-12-14T20:17:56.205Z,,,,,999.96,timeout,,,,,,,,,"[""flag"",""moon"",""flower"",""comb""]",4,,,,,,,136407,0,136405.482,135405.522,135391,135422.188,136422.148,immediate,experimental,
,Visor Instruction for delay,canvas.Screen,5_0_4_4,2018-12-14T20:17:56.206Z,,,,,NaN,skipped,,,,,,,,,"[""flag"",""moon"",""flower"",""comb""]",4,,,,,,,136408,0,136405.482,,136407,,136422.148,immediate,experimental,
,Recall,html.Screen,5_0_4_5,2018-12-14T20:18:04.098Z,,,TRUE,"[true,true,true,true]",7877.852,done,,"[""flower"",""owl"",""comb"",""pencil"",""flag"",""moon"",""apple""]",,,,,,"[""flag"",""moon"",""flower"",""comb""]","[""flag"",""moon"",""flower"",""comb""]",4,,,,,,,144300,0,144300,136405.482,136408,136422.148,144305.166,immediate,experimental,
,Trial sequence for Recall,flow.Sequence,5_0_4,2018-12-14T20:18:04.098Z,,,,,19427.39,completion,,,,,,,,,"[""flag"",""moon"",""flower"",""comb""]",4,,,,,,,144300,0,144300,124839.278,124852,124872.61,144305.166,immediate,experimental,
,Get-set-go,html.Screen,5_0_5_0,2018-12-14T20:18:05.614Z,,,,,1510.834,response,,,,,,,continue,,"[""apple"",""flag"",""comb"",""owl""]",4,,,,,,,145816,0,145816,144288.5,144300,144305.166,145821.772,immediate,experimental,
,Blank Screen,html.Screen,5_0_5_1,2018-12-14T20:18:06.604Z,,,,,999.96,timeout,,,,,,,,,"[""apple"",""flag"",""comb"",""owl""]",4,,,,,,,146807,0,146805.066,145805.106,145816,145821.772,146821.732,immediate,experimental,
,Learning phase,flow.Loop,5_0_5_2,2018-12-14T20:18:14.638Z,,,,,8016.346,completion,,"[""flower"",""owl"",""pencil"",""comb"",""moon"",""flag"",""apple""]",,,,,,,"[""apple"",""flag"",""comb"",""owl""]",4,,,,,,,154840,0,154838.078,146805.066,146807,146821.732,154871.41,immediate,experimental,
,Blank Screen,html.Screen,5_0_5_3,2018-12-14T20:18:15.654Z,,,,,1016.626,timeout,,,,,,,,,"[""apple"",""flag"",""comb"",""owl""]",4,,,,,,,155856,0,155854.704,154854.744,154842,154871.41,155888.036,immediate,experimental,
,Visor Instruction for delay,canvas.Screen,5_0_5_4,2018-12-14T20:18:15.655Z,,,,,NaN,skipped,,,,,,,,,"[""apple"",""flag"",""comb"",""owl""]",4,,,,,,,155857,0,155854.704,,155856,,155888.036,immediate,experimental,
,Recall,html.Screen,5_0_5_5,2018-12-14T20:18:23.098Z,,,TRUE,"[true,true,true,true]",7411.964,done,,"[""apple"",""comb"",""flag"",""owl"",""flower"",""pencil"",""moon""]",,,,,,"[""apple"",""flag"",""comb"",""owl""]","[""apple"",""flag"",""comb"",""owl""]",4,,,,,,,163300,0,163300,155854.704,155858,155888.036,163321.072,immediate,experimental,
,Trial sequence for Recall,flow.Sequence,5_0_5,2018-12-14T20:18:23.098Z,,,,,18994.834,completion,,,,,,,,,"[""apple"",""flag"",""comb"",""owl""]",4,,,,,,,163300,0,163300,144288.5,144300,144305.166,163321.072,immediate,experimental,
,Get-set-go,html.Screen,5_0_6_0,2018-12-14T20:18:24.781Z,,,,,1661.928,response,,,,,,,continue,,"[""comb"",""pencil"",""flower"",""moon"",""flag""]",5,,,,,,,164983,0,164983,163287.74,163300,163321.072,165004.338,immediate,experimental,
,Blank Screen,html.Screen,5_0_6_1,2018-12-14T20:18:25.788Z,,,,,999.96,timeout,,,,,,,,,"[""comb"",""pencil"",""flower"",""moon"",""flag""]",5,,,,,,,165990,0,165987.632,164971.006,164983,165004.338,166004.298,immediate,experimental,
,Learning phase,flow.Loop,5_0_6_2,2018-12-14T20:18:35.821Z,,,,,10016.266,completion,,"[""moon"",""pencil"",""comb"",""flag"",""apple"",""flower"",""owl""]",,,,,,,"[""comb"",""pencil"",""flower"",""moon"",""flag""]",5,,,,,,,176023,0,176020.564,165987.632,165990,166004.298,176053.896,immediate,experimental,
,Blank Screen,html.Screen,5_0_6_3,2018-12-14T20:18:36.838Z,,,,,1016.626,timeout,,,,,,,,,"[""comb"",""pencil"",""flower"",""moon"",""flag""]",5,,,,,,,177040,0,177037.19,176037.23,176023,176053.896,177070.522,immediate,experimental,
,Visor Instruction for delay,canvas.Screen,5_0_6_4,2018-12-14T20:18:36.839Z,,,,,NaN,skipped,,,,,,,,,"[""comb"",""pencil"",""flower"",""moon"",""flag""]",5,,,,,,,177041,0,177037.19,,177040,,177070.522,immediate,experimental,
,Recall,html.Screen,5_0_6_5,2018-12-14T20:18:48.014Z,,,FALSE,"[true,true,false,false,true]",11145.478,done,,"[""comb"",""flag"",""flower"",""owl"",""pencil"",""moon"",""apple""]",,,,,,"[""comb"",""pencil"",""owl"",""apple"",""flag""]","[""comb"",""pencil"",""flower"",""moon"",""flag""]",5,,,,,,,188216,0,188216,177037.19,177041,177070.522,188253.408,immediate,experimental,
,Trial sequence for Recall,flow.Sequence,5_0_6,2018-12-14T20:18:48.014Z,,,,,24894.928,completion,,,,,,,,,"[""comb"",""pencil"",""flower"",""moon"",""flag""]",5,,,,,,,188216,0,188216,163287.74,163300,163321.072,188253.408,immediate,experimental,
,Get-set-go,html.Screen,5_0_7_0,2018-12-14T20:18:49.281Z,,,,,1229.592,response,,,,,,,continue,,"[""flower"",""owl"",""flag"",""pencil"",""apple""]",5,,,,,,,189483,0,189483,188220.076,188216,188253.408,189503.358,immediate,experimental,
,Blank Screen,html.Screen,5_0_7_1,2018-12-14T20:18:50.286Z,,,,,999.96,timeout,,,,,,,,,"[""flower"",""owl"",""flag"",""pencil"",""apple""]",5,,,,,,,190488,0,190486.652,189486.692,189483,189503.358,190503.318,immediate,experimental,
,Learning phase,flow.Loop,5_0_7_2,2018-12-14T20:19:00.319Z,,,,,10016.266,completion,,"[""comb"",""pencil"",""flower"",""moon"",""apple"",""owl"",""flag""]",,,,,,,"[""flower"",""owl"",""flag"",""pencil"",""apple""]",5,,,,,,,200521,0,200519.584,190486.652,190488,190503.318,200552.916,immediate,experimental,
,Blank Screen,html.Screen,5_0_7_3,2018-12-14T20:19:01.337Z,,,,,1016.626,timeout,,,,,,,,,"[""flower"",""owl"",""flag"",""pencil"",""apple""]",5,,,,,,,201539,0,201536.21,200536.25,200521,200552.916,201569.542,immediate,experimental,
,Visor Instruction for delay,canvas.Screen,5_0_7_4,2018-12-14T20:19:01.338Z,,,,,NaN,skipped,,,,,,,,,"[""flower"",""owl"",""flag"",""pencil"",""apple""]",5,,,,,,,201540,0,201536.21,,201540,,201569.542,immediate,experimental,
,Recall,html.Screen,5_0_7_5,2018-12-14T20:19:17.902Z,,,FALSE,"[false,false,false,true,false]",16534.458,done,,"[""flower"",""apple"",""comb"",""owl"",""pencil"",""flag"",""moon""]",,,,,,"[""owl"",""flower"",""comb"",""pencil"",""flag""]","[""flower"",""owl"",""flag"",""pencil"",""apple""]",5,,,,,,,218104,0,218104,201536.21,201540,201569.542,218135.546,immediate,experimental,
,Trial sequence for Recall,flow.Sequence,5_0_7,2018-12-14T20:19:17.902Z,,,,,29850.592,completion,,,,,,,,,"[""flower"",""owl"",""flag"",""pencil"",""apple""]",5,,,,,,,218104,0,218104,188220.076,188216,188253.408,218135.546,immediate,experimental,
,Picture span task,flow.Loop,5_0,2018-12-14T20:19:17.902Z,,,,,148329.186,completion,,,,,,,,,,,,,,,,,218104,0,218104,69758.148,69774,69774.814,218135.546,immediate,,
,Get-set-go,html.Screen,5_1_0_0,2018-12-14T20:19:19.275Z,,,,,1340.454,response,,,,,,,continue,,"[""flower"",""moon""]",2,,,,,,,219477,15000,219476,218118.88,218104,218135.546,219518.824,delayed,experimental,
,Blank Screen,html.Screen,5_1_0_1,2018-12-14T20:19:20.302Z,,,,,1033.292,timeout,,,,,,,,,"[""flower"",""moon""]",2,,,,,,,220504,15000,220502.118,219485.492,219477,219518.824,220552.116,delayed,experimental,
,Learning phase,flow.Loop,5_1_0_2,2018-12-14T20:19:24.367Z,,,,,4016.506,completion,,"[""owl"",""pencil"",""apple"",""flower"",""moon"",""comb"",""flag""]",,,,,,,"[""flower"",""moon""]",2,,,,,,,224570,15000,224568.622,220502.118,220504,220552.116,224618.62,delayed,experimental,
,Blank Screen,html.Screen,5_1_0_3,2018-12-14T20:19:25.401Z,,,,,1033.292,timeout,,,,,,,,,"[""flower"",""moon""]",2,,,,,,,225603,15000,225601.914,224601.954,224570,224618.62,225651.912,delayed,experimental,
,Visor Instruction for delay,canvas.Screen,5_1_0_4,2018-12-14T20:19:40.434Z,,,,,15032.732,timeout,,,,,,,,,"[""flower"",""moon""]",2,,,,,,,240636,15000,240634.646,225601.914,225603,225651.912,240684.644,delayed,experimental,
,Recall,html.Screen,5_1_0_5,2018-12-14T20:19:53.551Z,,,FALSE,"[false,false]",13068.356,done,,"[""flower"",""flag"",""owl"",""pencil"",""apple"",""comb"",""moon""]",,,,,,"[""apple"",""owl""]","[""flower"",""moon""]",2,,,,,,,253753,15000,253753,240634.646,240636,240684.644,253784.12,delayed,experimental,
,Trial sequence for Recall,flow.Sequence,5_1_0,2018-12-14T20:19:53.551Z,,,,,35617.454,completion,,,,,,,,,"[""flower"",""moon""]",2,,,,,,,253753,15000,253753,218118.88,218104,218135.546,253784.12,delayed,experimental,
,Get-set-go,html.Screen,5_1_1_0,2018-12-14T20:19:55.434Z,,,,,1851.88,response,,,,,,,continue,,"[""moon"",""owl""]",2,,,,,,,255636,15000,255636,253767.454,253753,253784.12,255650.712,delayed,experimental,
,Blank Screen,html.Screen,5_1_1_1,2018-12-14T20:19:56.437Z,,,,,1066.624,timeout,,,,,,,,,"[""moon"",""owl""]",2,,,,,,,256640,15000,256634.006,255634.046,255636,255650.712,256717.336,delayed,experimental,
,Learning phase,flow.Loop,5_1_1_2,2018-12-14T20:20:00.517Z,,,,,3999.84,completion,,"[""moon"",""flower"",""comb"",""flag"",""apple"",""owl"",""pencil""]",,,,,,,"[""moon"",""owl""]",2,,,,,,,260719,15000,260717.176,256634.006,256641,256717.336,260750.508,delayed,experimental,
,Blank Screen,html.Screen,5_1_1_3,2018-12-14T20:20:01.533Z,,,,,1016.626,timeout,,,,,,,,,"[""moon"",""owl""]",2,,,,,,,261735,15000,261733.802,260733.842,260720,260750.508,261767.134,delayed,experimental,
,Visor Instruction for delay,canvas.Screen,5_1_1_4,2018-12-14T20:20:16.548Z,,,,,15016.066,timeout,,,,,,,,,"[""moon"",""owl""]",2,,,,,,,276751,15000,276749.868,261733.802,261736,261767.134,276783.2,delayed,experimental,
,Recall,html.Screen,5_1_1_5,2018-12-14T20:20:22.443Z,,,TRUE,"[true,true]",5862.8,done,,"[""apple"",""comb"",""moon"",""flower"",""pencil"",""flag"",""owl""]",,,,,,"[""moon"",""owl""]","[""moon"",""owl""]",2,,,,,,,282646,15000,282646,276749.868,276752,276783.2,282666.298,delayed,experimental,
,Trial sequence for Recall,flow.Sequence,5_1_1,2018-12-14T20:20:22.443Z,,,,,28861.88,completion,,,,,,,,,"[""moon"",""owl""]",2,,,,,,,282646,15000,282646,253767.454,253753,253784.12,282666.298,delayed,experimental,
,Get-set-go,html.Screen,5_1_2_0,2018-12-14T20:20:23.957Z,,,,,1493.702,response,,,,,,,continue,,"[""apple"",""flag"",""owl""]",3,,,,,,,284160,15000,284160,282632.966,282646,282666.298,284166.238,delayed,experimental,
,Blank Screen,html.Screen,5_1_2_1,2018-12-14T20:20:24.949Z,,,,,999.96,timeout,,,,,,,,,"[""apple"",""flag"",""owl""]",3,,,,,,,285152,15000,285149.532,284149.572,284160,284166.238,285166.198,delayed,experimental,
,Learning phase,flow.Loop,5_1_2_2,2018-12-14T20:20:30.981Z,,,,,6016.426,completion,,"[""pencil"",""moon"",""owl"",""flag"",""flower"",""comb"",""apple""]",,,,,,,"[""apple"",""flag"",""owl""]",3,,,,,,,291184,15000,291182.624,285149.532,285152,285166.198,291215.956,delayed,experimental,
,Blank Screen,html.Screen,5_1_2_3,2018-12-14T20:20:31.998Z,,,,,1016.626,timeout,,,,,,,,,"[""apple"",""flag"",""owl""]",3,,,,,,,292201,15000,292199.25,291199.29,291185,291215.956,292232.582,delayed,experimental,
,Visor Instruction for delay,canvas.Screen,5_1_2_4,2018-12-14T20:20:47.015Z,,,,,15016.066,timeout,,,,,,,,,"[""apple"",""flag"",""owl""]",3,,,,,,,307217,15000,307215.316,292199.25,292202,292232.582,307248.648,delayed,experimental,
,Recall,html.Screen,5_1_2_5,2018-12-14T20:21:02.580Z,,,TRUE,"[true,true,true]",15533.352,done,,"[""pencil"",""flower"",""apple"",""owl"",""moon"",""comb"",""flag""]",,,,,,"[""apple"",""flag"",""owl""]","[""apple"",""flag"",""owl""]",3,,,,,,,322782,15000,322782,307215.316,307218,307248.648,322814.692,delayed,experimental,
,Trial sequence for Recall,flow.Sequence,5_1_2,2018-12-14T20:21:02.580Z,,,,,40115.702,completion,,,,,,,,,"[""apple"",""flag"",""owl""]",3,,,,,,,322782,15000,322782,282632.966,282646,282666.298,322814.692,delayed,experimental,
,Get-set-go,html.Screen,5_1_3_0,2018-12-14T20:21:03.990Z,,,,,1378.308,response,,,,,,,continue,,"[""owl"",""apple"",""moon""]",3,,,,,,,324193,15000,324193,322781.36,322782,322814.692,324197.97,delayed,experimental,
,Blank Screen,html.Screen,5_1_3_1,2018-12-14T20:21:04.980Z,,,,,999.96,timeout,,,,,,,,,"[""owl"",""apple"",""moon""]",3,,,,,,,325183,15000,325181.264,324181.304,324193,324197.97,325197.93,delayed,experimental,
,Learning phase,flow.Loop,5_1_3_2,2018-12-14T20:21:10.996Z,,,,,5999.76,completion,,"[""comb"",""flower"",""pencil"",""owl"",""apple"",""moon"",""flag""]",,,,,,,"[""owl"",""apple"",""moon""]",3,,,,,,,331199,15000,331197.69,325181.264,325183,325197.93,331231.022,delayed,experimental,
,Blank Screen,html.Screen,5_1_3_3,2018-12-14T20:21:12.014Z,,,,,999.96,timeout,,,,,,,,,"[""owl"",""apple"",""moon""]",3,,,,,,,332217,15000,332214.316,331214.356,331200,331231.022,332230.982,delayed,experimental,
,Visor Instruction for delay,canvas.Screen,5_1_3_4,2018-12-14T20:21:27.013Z,,,,,15016.066,timeout,,,,,,,,,"[""owl"",""apple"",""moon""]",3,,,,,,,347215,15000,347213.716,332214.316,332217,332230.982,347247.048,delayed,experimental,
,Recall,html.Screen,5_1_3_5,2018-12-14T20:21:37.745Z,,,TRUE,"[true,true,true]",10699.952,done,,"[""owl"",""apple"",""flower"",""flag"",""comb"",""moon"",""pencil""]",,,,,,"[""owl"",""apple"",""moon""]","[""owl"",""apple"",""moon""]",3,,,,,,,357947,15000,357947,347213.716,347216,347247.048,357996.618,delayed,experimental,
,Trial sequence for Recall,flow.Sequence,5_1_3,2018-12-14T20:21:37.745Z,,,,,35132.308,completion,,,,,,,,,"[""owl"",""apple"",""moon""]",3,,,,,,,357947,15000,357947,322781.36,322782,322814.692,357996.618,delayed,experimental,
,Get-set-go,html.Screen,5_1_4_0,2018-12-14T20:21:39.721Z,,,,,1926.382,response,,,,,,,continue,,"[""apple"",""moon"",""flag"",""owl""]",4,,,,,,,359923,15000,359923,357963.286,357947,357996.618,359929.874,delayed,experimental,
,Blank Screen,html.Screen,5_1_4_1,2018-12-14T20:21:40.713Z,,,,,999.96,timeout,,,,,,,,,"[""apple"",""moon"",""flag"",""owl""]",4,,,,,,,360916,15000,360913.168,359913.208,359923,359929.874,360929.834,delayed,experimental,
,Learning phase,flow.Loop,5_1_4_2,2018-12-14T20:21:48.730Z,,,,,7999.68,completion,,"[""comb"",""owl"",""apple"",""flag"",""pencil"",""flower"",""moon""]",,,,,,,"[""apple"",""moon"",""flag"",""owl""]",4,,,,,,,368932,15000,368929.514,360913.168,360916,360929.834,368962.846,delayed,experimental,
,Blank Screen,html.Screen,5_1_4_3,2018-12-14T20:21:49.746Z,,,,,1016.626,timeout,,,,,,,,,"[""apple"",""moon"",""flag"",""owl""]",4,,,,,,,369949,15000,369946.14,368946.18,368932,368962.846,369979.472,delayed,experimental,
,Visor Instruction for delay,canvas.Screen,5_1_4_4,2018-12-14T20:22:04.763Z,,,,,15016.066,timeout,,,,,,,,,"[""apple"",""moon"",""flag"",""owl""]",4,,,,,,,384965,15000,384962.206,369946.14,369949,369979.472,384995.538,delayed,experimental,
,Recall,html.Screen,5_1_4_5,2018-12-14T20:22:14.840Z,,,FALSE,"[false,false,false,true]",10046.462,done,,"[""comb"",""apple"",""moon"",""owl"",""flower"",""flag"",""pencil""]",,,,,,"[""flag"",""pencil"",""apple"",""owl""]","[""apple"",""moon"",""flag"",""owl""]",4,,,,,,,395042,15000,395042,384962.206,384965,384995.538,395078.468,delayed,experimental,
,Trial sequence for Recall,flow.Sequence,5_1_4,2018-12-14T20:22:14.840Z,,,,,37045.382,completion,,,,,,,,,"[""apple"",""moon"",""flag"",""owl""]",4,,,,,,,395042,15000,395042,357963.286,357947,357996.618,395078.468,delayed,experimental,
,Get-set-go,html.Screen,5_1_5_0,2018-12-14T20:22:15.738Z,,,,,862.532,response,,,,,,,continue,,"[""apple"",""flag"",""moon"",""comb""]",4,,,,,,,395941,15000,395941,395028.47,395042,395078.468,395945.1,delayed,experimental,
,Blank Screen,html.Screen,5_1_5_1,2018-12-14T20:22:16.729Z,,,,,999.96,timeout,,,,,,,,,"[""apple"",""flag"",""moon"",""comb""]",4,,,,,,,396931,15000,396928.394,395928.434,395941,395945.1,396945.06,delayed,experimental,
,Learning phase,flow.Loop,5_1_5_2,2018-12-14T20:22:24.744Z,,,,,7999.68,completion,,"[""flag"",""moon"",""pencil"",""comb"",""flower"",""apple"",""owl""]",,,,,,,"[""apple"",""flag"",""moon"",""comb""]",4,,,,,,,404946,15000,404944.74,396928.394,396931,396945.06,404978.072,delayed,experimental,
,Blank Screen,html.Screen,5_1_5_3,2018-12-14T20:22:25.761Z,,,,,999.96,timeout,,,,,,,,,"[""apple"",""flag"",""moon"",""comb""]",4,,,,,,,405963,15000,405961.366,404961.406,404947,404978.072,405978.032,delayed,experimental,
,Visor Instruction for delay,canvas.Screen,5_1_5_4,2018-12-14T20:22:40.760Z,,,,,15016.066,timeout,,,,,,,,,"[""apple"",""flag"",""moon"",""comb""]",4,,,,,,,420962,15000,420960.766,405961.366,405963,405978.032,420994.098,delayed,experimental,
,Recall,html.Screen,5_1_5_5,2018-12-14T20:22:47.620Z,,,FALSE,"[true,true,false,false]",6827.902,done,,"[""apple"",""pencil"",""comb"",""flower"",""flag"",""moon"",""owl""]",,,,,,"[""apple"",""flag"",""owl"",""moon""]","[""apple"",""flag"",""moon"",""comb""]",4,,,,,,,427822,15000,427822,420960.766,420962,420994.098,427893.822,delayed,experimental,
,Trial sequence for Recall,flow.Sequence,5_1_5,2018-12-14T20:22:47.620Z,,,,,32743.532,completion,,,,,,,,,"[""apple"",""flag"",""moon"",""comb""]",4,,,,,,,427822,15000,427822,395028.47,395042,395078.468,427893.822,delayed,experimental,
,Get-set-go,html.Screen,5_1_6_0,2018-12-14T20:22:52.494Z,,,,,4802.178,response,,,,,,,continue,,"[""pencil"",""owl"",""moon"",""comb"",""flower""]",5,,,,,,,432696,15000,432696,427810.492,427822,427893.822,432710.296,delayed,experimental,
,Blank Screen,html.Screen,5_1_6_1,2018-12-14T20:22:53.493Z,,,,,999.96,timeout,,,,,,,,,"[""pencil"",""owl"",""moon"",""comb"",""flower""]",5,,,,,,,433695,15000,433693.59,432693.63,432696,432710.296,433710.256,delayed,experimental,
,Learning phase,flow.Loop,5_1_6_2,2018-12-14T20:23:03.543Z,,,,,10032.932,completion,,"[""flower"",""owl"",""apple"",""moon"",""pencil"",""flag"",""comb""]",,,,,,,"[""pencil"",""owl"",""moon"",""comb"",""flower""]",5,,,,,,,443745,15000,443743.188,433693.59,433696,433710.256,443776.52,delayed,experimental,
,Blank Screen,html.Screen,5_1_6_3,2018-12-14T20:23:04.558Z,,,,,999.96,timeout,,,,,,,,,"[""pencil"",""owl"",""moon"",""comb"",""flower""]",5,,,,,,,444761,15000,444759.814,443759.854,443746,443776.52,444776.48,delayed,experimental,
,Visor Instruction for delay,canvas.Screen,5_1_6_4,2018-12-14T20:23:19.559Z,,,,,15016.066,timeout,,,,,,,,,"[""pencil"",""owl"",""moon"",""comb"",""flower""]",5,,,,,,,459761,15000,459759.214,444759.814,444762,444776.48,459792.546,delayed,experimental,
,Recall,html.Screen,5_1_6_5,2018-12-14T20:23:33.553Z,,,FALSE,"[false,false,true,false,true]",13963.454,done,,"[""comb"",""apple"",""flower"",""owl"",""flag"",""pencil"",""moon""]",,,,,,"[""owl"",""apple"",""moon"",""pencil"",""flower""]","[""pencil"",""owl"",""moon"",""comb"",""flower""]",5,,,,,,,473756,15000,473756,459759.214,459762,459792.546,473775.32,delayed,experimental,
,Trial sequence for Recall,flow.Sequence,5_1_6,2018-12-14T20:23:33.553Z,,,,,45862.178,completion,,,,,,,,,"[""pencil"",""owl"",""moon"",""comb"",""flower""]",5,,,,,,,473756,15000,473756,427810.492,427822,427893.822,473775.32,delayed,experimental,
,Get-set-go,html.Screen,5_1_7_0,2018-12-14T20:23:34.870Z,,,,,1296.68,response,,,,,,,continue,,"[""apple"",""comb"",""moon"",""pencil"",""owl""]",5,,,,,,,475072,15000,475072,473741.988,473756,473775.32,475091.934,delayed,experimental,
,Blank Screen,html.Screen,5_1_7_1,2018-12-14T20:23:35.874Z,,,,,1033.292,timeout,,,,,,,,,"[""apple"",""comb"",""moon"",""pencil"",""owl""]",5,,,,,,,476077,15000,476075.228,475075.268,475072,475091.934,476125.226,delayed,experimental,
,Learning phase,flow.Loop,5_1_7_2,2018-12-14T20:23:46.007Z,,,,,10082.93,completion,,"[""moon"",""owl"",""apple"",""comb"",""flag"",""pencil"",""flower""]",,,,,,,"[""apple"",""comb"",""moon"",""pencil"",""owl""]",5,,,,,,,486210,15000,486208.156,476075.228,476077,476125.226,486258.154,delayed,experimental,
,Blank Screen,html.Screen,5_1_7_3,2018-12-14T20:23:47.040Z,,,,,1016.626,timeout,,,,,,,,,"[""apple"",""comb"",""moon"",""pencil"",""owl""]",5,,,,,,,487243,15000,487241.448,486241.488,486210,486258.154,487274.78,delayed,experimental,
,Visor Instruction for delay,canvas.Screen,5_1_7_4,2018-12-14T20:24:02.056Z,,,,,15032.732,timeout,,,,,,,,,"[""apple"",""comb"",""moon"",""pencil"",""owl""]",5,,,,,,,502259,15000,502257.514,487241.448,487243,487274.78,502307.512,delayed,experimental,
,Recall,html.Screen,5_1_7_5,2018-12-14T20:24:08.088Z,,,TRUE,"[true,true,true,true,true]",5983.488,done,,"[""owl"",""flag"",""apple"",""moon"",""flower"",""comb"",""pencil""]",,,,,,"[""apple"",""comb"",""moon"",""pencil"",""owl""]","[""apple"",""comb"",""moon"",""pencil"",""owl""]",5,,,,,,,508291,15000,508291,502257.514,502260,502307.512,508323.938,delayed,experimental,
,Trial sequence for Recall,flow.Sequence,5_1_7,2018-12-14T20:24:08.088Z,,,,,34515.68,completion,,,,,,,,,"[""apple"",""comb"",""moon"",""pencil"",""owl""]",5,,,,,,,508291,15000,508291,473741.988,473756,473775.32,508323.938,delayed,experimental,
,Picture span task,flow.Loop,5_1,2018-12-14T20:24:08.088Z,,,,,290155.454,completion,,,,,,,,,,,,,,,,,508291,15000,508291,218118.88,218104,218135.546,508323.938,delayed,,
,Counterbalancing Loop,flow.Loop,5,2018-12-14T20:24:08.088Z,,,,,438516.186,completion,,,,,,,,,,,,,,,,,508291,,508291,69758.148,69774,69774.814,508323.938,,,
,Strategy,html.Form,6,2018-12-14T20:25:08.201Z,,,,,60080.062,form submission,,,,,,,,,,,TRUE,TRUE,TRUE,TRUE,I went to the moon.,TRUE,568404,,568404,508290.606,508291,508323.938,568454.866,,,
,Picture Presentation,html.Screen,7_0_0,2018-12-14T20:25:14.252Z,,,,,5999.134,response,,,,,,apple,yes,,,,,,,,,,574454,,574454,568388.202,568404,568454.866,574504.624,,picture naming,
,(Optional) naming,html.Form,7_0_1,2018-12-14T20:25:14.267Z,,,,,NaN,skipped,,,,,,apple,,,,,,,,,,,574470,,574454,,574470,,574504.624,,picture naming,
,Naming trial,flow.Sequence,7_0,2018-12-14T20:25:14.267Z,,,,,5999.134,completion,,,,,,apple,,,,,,,,,,,574470,,574454,568388.202,568404,568454.866,574504.624,,picture naming,
,Picture Presentation,html.Screen,7_1_0,2018-12-14T20:25:15.292Z,,,,,990.376,response,,,,,,flag,yes,,,,,,,,,,575495,,575495,574454.626,574471,574504.624,575537.916,,picture naming,
,(Optional) naming,html.Form,7_1_1,2018-12-14T20:25:15.292Z,,,,,NaN,skipped,,,,,,flag,,,,,,,,,,,575495,,575495,,575495,,575537.916,,picture naming,
,Naming trial,flow.Sequence,7_1,2018-12-14T20:25:15.292Z,,,,,990.376,completion,,,,,,flag,,,,,,,,,,,575495,,575495,574454.626,574471,574504.624,575537.916,,picture naming,
,Picture Presentation,html.Screen,7_2_0,2018-12-14T20:25:16.215Z,,,,,879.084,response,,,,,,comb,yes,,,,,,,,,,576417,,576417,575487.918,575495,575537.916,576421.214,,picture naming,
,(Optional) naming,html.Form,7_2_1,2018-12-14T20:25:16.215Z,,,,,NaN,skipped,,,,,,comb,,,,,,,,,,,576417,,576417,,576417,,576421.214,,picture naming,
,Naming trial,flow.Sequence,7_2,2018-12-14T20:25:16.215Z,,,,,879.084,completion,,,,,,comb,,,,,,,,,,,576417,,576417,575487.918,575495,575537.916,576421.214,,picture naming,
,Picture Presentation,html.Screen,7_3_0,2018-12-14T20:25:18.636Z,,,,,2416.786,response,,,,,,owl,yes,,,,,,,,,,578838,,578838,576404.548,576417,576421.214,578854.45,,picture naming,
,(Optional) naming,html.Form,7_3_1,2018-12-14T20:25:18.636Z,,,,,NaN,skipped,,,,,,owl,,,,,,,,,,,578838,,578838,,578838,,578854.45,,picture naming,
,Naming trial,flow.Sequence,7_3,2018-12-14T20:25:18.636Z,,,,,2416.786,completion,,,,,,owl,,,,,,,,,,,578838,,578838,576404.548,576417,576421.214,578854.45,,picture naming,
,Picture Presentation,html.Screen,7_4_0,2018-12-14T20:25:19.374Z,,,,,722.55,response,,,,,,moon,yes,,,,,,,,,,579577,,579577,578837.784,578838,578854.45,579621.086,,picture naming,
,(Optional) naming,html.Form,7_4_1,2018-12-14T20:25:19.374Z,,,,,NaN,skipped,,,,,,moon,,,,,,,,,,,579577,,579577,,579577,,579621.086,,picture naming,
,Naming trial,flow.Sequence,7_4,2018-12-14T20:25:19.374Z,,,,,722.55,completion,,,,,,moon,,,,,,,,,,,579577,,579577,578837.784,578838,578854.45,579621.086,,picture naming,
,Picture Presentation,html.Screen,7_5_0,2018-12-14T20:25:20.221Z,,,,,802.914,response,,,,,,pencil,yes,,,,,,,,,,580424,,580424,579571.088,579577,579621.086,580454.386,,picture naming,
,(Optional) naming,html.Form,7_5_1,2018-12-14T20:25:20.221Z,,,,,NaN,skipped,,,,,,pencil,,,,,,,,,,,580424,,580424,,580424,,580454.386,,picture naming,
,Naming trial,flow.Sequence,7_5,2018-12-14T20:25:20.221Z,,,,,802.914,completion,,,,,,pencil,,,,,,,,,,,580424,,580424,579571.088,579577,579621.086,580454.386,,picture naming,
,Picture Presentation,html.Screen,7_6_0,2018-12-14T20:25:21.364Z,,,,,1112.614,response,,,,,,flower,yes,,,,,,,,,,581567,,581567,580421.054,580424,580454.386,581587.674,,picture naming,
,(Optional) naming,html.Form,7_6_1,2018-12-14T20:25:21.364Z,,,,,NaN,skipped,,,,,,flower,,,,,,,,,,,581567,,581567,,581567,,581587.674,,picture naming,
,Naming trial,flow.Sequence,7_6,2018-12-14T20:25:21.364Z,,,,,1112.614,completion,,,,,,flower,,,,,,,,,,,581567,,581567,580421.054,580424,580454.386,581587.674,,picture naming,
,Picture Naming,flow.Loop,7,2018-12-14T20:25:21.364Z,,,,,13112.134,completion,,,,,,,,,,,,,,,,,581567,,581567,568388.202,568404,568454.866,581587.674,,,
,Get-set-go,html.Screen,8_0_0,2018-12-14T20:25:23.500Z,,,,,2115.326,response,,,,,,,continue,,"[""owl"",""apple""]",2,,,,,,,583703,,583703,581554.342,581567,581587.674,583737.588,,point and name,
,Learning phase,flow.Loop,8_0_1,2018-12-14T20:25:26.520Z,,,,,2983.214,completion,,"[""comb"",""flag"",""owl"",""pencil"",""moon"",""flower"",""apple""]",,,,,,,"[""owl"",""apple""]",2,,,,,,,586723,,586720.802,583687.59,583703,583737.588,586787.466,,point and name,
,Visor Instruction for delay,canvas.Screen,8_0_2,2018-12-14T20:25:41.570Z,,,,,15016.066,timeout,,,,,,,,,"[""owl"",""apple""]",2,,,,,,,601773,,601770.2,586770.8,586723,586787.466,601803.532,,point and name,
,Recall,html.Screen,8_0_3,2018-12-14T20:25:45.904Z,,,TRUE,"[true,true]",4302.468,done,,"[""comb"",""flag"",""moon"",""apple"",""flower"",""pencil"",""owl""]",,,,,,"[""owl"",""apple""]","[""owl"",""apple""]",2,,,,,,,606106,,606106,601770.2,601773,601803.532,606136.692,,point and name,
,Trial sequence for Point and Name,flow.Sequence,8_0,2018-12-14T20:25:45.904Z,,,,,24518.326,completion,,,,,,,,,"[""owl"",""apple""]",2,,,,,,,606106,,606106,581554.342,581567,581587.674,606136.692,,point and name,
,Get-set-go,html.Screen,8_1_0,2018-12-14T20:25:47.347Z,,,,,1396.308,response,,,,,,,continue,,"[""flag"",""flower""]",2,,,,,,,607549,,607533,606120.026,606106,606136.692,607569.968,,point and name,
,Learning phase,flow.Loop,8_1_1,2018-12-14T20:25:50.354Z,,,,,2983.214,completion,,"[""flower"",""owl"",""comb"",""pencil"",""moon"",""flag"",""apple""]",,,,,,,"[""flag"",""flower""]",2,,,,,,,610556,,610553.182,607536.636,607549,607569.968,610603.18,,point and name,
,Visor Instruction for delay,canvas.Screen,8_1_2,2018-12-14T20:26:05.384Z,,,,,15032.732,timeout,,,,,,,,,"[""flag"",""flower""]",2,,,,,,,625587,,625585.914,610569.848,610556,610603.18,625635.912,,point and name,
,Recall,html.Screen,8_1_3,2018-12-14T20:26:09.997Z,,,TRUE,"[true,true]",4563.088,done,,"[""pencil"",""owl"",""flower"",""flag"",""moon"",""comb"",""apple""]",,,,,,"[""flag"",""flower""]","[""flag"",""flower""]",2,,,,,,,630199,,630199,625585.914,625588,625635.912,630219.062,,point and name,
,Trial sequence for Point and Name,flow.Sequence,8_1,2018-12-14T20:26:09.997Z,,,,,24062.308,completion,,,,,,,,,"[""flag"",""flower""]",2,,,,,,,630199,,630199,606120.026,606106,606136.692,630219.062,,point and name,
,Get-set-go,html.Screen,8_2_0,2018-12-14T20:26:22.994Z,,,,,12960.938,response,,,,,,,continue,,"[""apple"",""flag"",""pencil""]",3,,,,,,,643196,,643180,630185.73,630199,630219.062,643201.876,,point and name,
,Learning phase,flow.Loop,8_2_1,2018-12-14T20:26:27.485Z,,,,,4483.154,completion,,"[""flag"",""owl"",""moon"",""comb"",""pencil"",""apple"",""flower""]",,,,,,,"[""apple"",""flag"",""pencil""]",3,,,,,,,647687,,647685.03,643185.21,643196,643201.876,647718.362,,point and name,
,Visor Instruction for delay,canvas.Screen,8_2_2,2018-12-14T20:26:42.501Z,,,,,15032.732,timeout,,,,,,,,,"[""apple"",""flag"",""pencil""]",3,,,,,,,662703,,662701.096,647701.696,647688,647718.362,662751.094,,point and name,
,Recall,html.Screen,8_2_3,2018-12-14T20:26:48.912Z,,,TRUE,"[true,true,true]",6362.906,done,,"[""apple"",""pencil"",""comb"",""flag"",""owl"",""moon"",""flower""]",,,,,,"[""apple"",""flag"",""pencil""]","[""apple"",""flag"",""pencil""]",3,,,,,,,669114,,669114,662701.096,662703,662751.094,669150.838,,point and name,
,Trial sequence for Point and Name,flow.Sequence,8_2,2018-12-14T20:26:48.912Z,,,,,38894.938,completion,,,,,,,,,"[""apple"",""flag"",""pencil""]",3,,,,,,,669114,,669114,630185.73,630199,630219.062,669150.838,,point and name,
,Get-set-go,html.Screen,8_3_0,2018-12-14T20:26:49.997Z,,,,,1048.162,response,,,,,,,continue,,"[""flower"",""pencil"",""comb""]",3,,,,,,,670199,,670199,669100.84,669114,669150.838,670234.128,,point and name,
,Learning phase,flow.Loop,8_3_1,2018-12-14T20:26:54.518Z,,,,,4483.154,completion,,"[""moon"",""comb"",""pencil"",""owl"",""flower"",""flag"",""apple""]",,,,,,,"[""flower"",""pencil"",""comb""]",3,,,,,,,674720,,674717.282,670184.13,670199,670234.128,674750.614,,point and name,
,Visor Instruction for delay,canvas.Screen,8_3_2,2018-12-14T20:27:09.532Z,,,,,14999.4,timeout,,,,,,,,,"[""flower"",""pencil"",""comb""]",3,,,,,,,689734,,689733.348,674733.948,674721,674750.614,689750.014,,point and name,
,Recall,html.Screen,8_3_3,2018-12-14T20:27:16.109Z,,,TRUE,"[true,true,true]",6560.986,done,,"[""moon"",""owl"",""flag"",""apple"",""pencil"",""comb"",""flower""]",,,,,,"[""flower"",""pencil"",""comb""]","[""flower"",""pencil"",""comb""]",3,,,,,,,696311,,696311,689733.348,689734,689750.014,696333.084,,point and name,
,Trial sequence for Point and Name,flow.Sequence,8_3,2018-12-14T20:27:16.109Z,,,,,27160.162,completion,,,,,,,,,"[""flower"",""pencil"",""comb""]",3,,,,,,,696311,,696311,669100.84,669114,669150.838,696333.084,,point and name,
,Get-set-go,html.Screen,8_4_0,2018-12-14T20:27:17.244Z,,,,,1112.916,response,,,,,,,continue,,"[""comb"",""moon"",""apple"",""flower""]",4,,,,,,,697446,,697446,696316.418,696311,696333.084,697483.038,,point and name,
,Learning phase,flow.Loop,8_4_1,2018-12-14T20:27:23.266Z,,,,,5983.094,completion,,"[""pencil"",""flag"",""moon"",""comb"",""apple"",""owl"",""flower""]",,,,,,,"[""comb"",""moon"",""apple"",""flower""]",4,,,,,,,703468,,703466.132,697433.04,697462,697483.038,703499.464,,point and name,
,Visor Instruction for delay,canvas.Screen,8_4_2,2018-12-14T20:27:38.282Z,,,,,15016.066,timeout,,,,,,,,,"[""comb"",""moon"",""apple"",""flower""]",4,,,,,,,718484,,718482.198,703482.798,703468,703499.464,718515.53,,point and name,
,Recall,html.Screen,8_4_3,2018-12-14T20:27:54.020Z,,,FALSE,"[false,true,true,false]",15707.47,done,,"[""flag"",""apple"",""moon"",""pencil"",""owl"",""comb"",""flower""]",,,,,,"[""flower"",""moon"",""apple"",""comb""]","[""comb"",""moon"",""apple"",""flower""]",4,,,,,,,734223,,734223,718482.198,718485,718515.53,734248.234,,point and name,
,Trial sequence for Point and Name,flow.Sequence,8_4,2018-12-14T20:27:54.020Z,,,,,37889.916,completion,,,,,,,,,"[""comb"",""moon"",""apple"",""flower""]",4,,,,,,,734223,,734223,696316.418,696311,696333.084,734248.234,,point and name,
,Get-set-go,html.Screen,8_5_0,2018-12-14T20:27:58.320Z,,,,,4274.766,response,,,,,,,continue,,"[""apple"",""comb"",""flower"",""flag""]",4,,,,,,,738523,,738523,734214.902,734223,734248.234,738548.062,,point and name,
,Learning phase,flow.Loop,8_5_1,2018-12-14T20:28:04.381Z,,,,,6033.092,completion,,"[""pencil"",""owl"",""flag"",""moon"",""comb"",""flower"",""apple""]",,,,,,,"[""apple"",""comb"",""flower"",""flag""]",4,,,,,,,744584,,744581.154,738514.73,738523,738548.062,744614.486,,point and name,
,Visor Instruction for delay,canvas.Screen,8_5_2,2018-12-14T20:28:19.397Z,,,,,15016.066,timeout,,,,,,,,,"[""apple"",""comb"",""flower"",""flag""]",4,,,,,,,759600,,759597.22,744597.82,744585,744614.486,759630.552,,point and name,
,Recall,html.Screen,8_5_3,2018-12-14T20:28:28.205Z,,,FALSE,"[true,true,false,false]",8777.448,done,,"[""comb"",""flower"",""pencil"",""flag"",""moon"",""owl"",""apple""]",,,,,,"[""apple"",""comb"",""flag"",""flower""]","[""apple"",""comb"",""flower"",""flag""]",4,,,,,,,768408,,768408,759597.22,759600,759630.552,768446.866,,point and name,
,Trial sequence for Point and Name,flow.Sequence,8_5,2018-12-14T20:28:28.205Z,,,,,34159.766,completion,,,,,,,,,"[""apple"",""comb"",""flower"",""flag""]",4,,,,,,,768408,,768408,734214.902,734223,734248.234,768446.866,,point and name,
,Get-set-go,html.Screen,8_6_0,2018-12-14T20:28:29.473Z,,,,,1228.134,response,,,,,,,continue,,"[""comb"",""moon"",""pencil"",""flag"",""apple""]",5,,,,,,,769676,,769675,768396.868,768408,768446.866,769680.15,,point and name,
,Learning phase,flow.Loop,8_6_1,2018-12-14T20:28:36.962Z,,,,,7483.034,completion,,"[""flag"",""pencil"",""apple"",""flower"",""owl"",""moon"",""comb""]",,,,,,,"[""comb"",""moon"",""pencil"",""flag"",""apple""]",5,,,,,,,777165,,777163.184,769663.484,769676,769680.15,777196.516,,point and name,
,Visor Instruction for delay,canvas.Screen,8_6_2,2018-12-14T20:28:51.978Z,,,,,15032.732,timeout,,,,,,,,,"[""comb"",""moon"",""pencil"",""flag"",""apple""]",5,,,,,,,792181,,792179.25,777179.85,777166,777196.516,792229.248,,point and name,
,Recall,html.Screen,8_6_3,2018-12-14T20:29:00.638Z,,,FALSE,"[false,true,true,true,true]",8610.752,done,,"[""moon"",""comb"",""apple"",""owl"",""pencil"",""flower"",""flag""]",,,,,,"[""flower"",""moon"",""pencil"",""flag"",""apple""]","[""comb"",""moon"",""pencil"",""flag"",""apple""]",5,,,,,,,800840,,800840,792179.25,792181,792229.248,800862.236,,point and name,
,Trial sequence for Point and Name,flow.Sequence,8_6,2018-12-14T20:29:00.638Z,,,,,32393.134,completion,,,,,,,,,"[""comb"",""moon"",""pencil"",""flag"",""apple""]",5,,,,,,,800840,,800840,768396.868,768408,768446.866,800862.236,,point and name,
,Get-set-go,html.Screen,8_7_0,2018-12-14T20:29:03.951Z,,,,,3291.764,response,,,,,,,continue,,"[""moon"",""owl"",""flower"",""apple"",""comb""]",5,,,,,,,804154,,804154,800828.904,800840,800862.236,804178.77,,point and name,
,Learning phase,flow.Loop,8_7_1,2018-12-14T20:29:11.460Z,,,,,7483.034,completion,,"[""apple"",""pencil"",""owl"",""comb"",""moon"",""flag"",""flower""]",,,,,,,"[""moon"",""owl"",""flower"",""apple"",""comb""]",5,,,,,,,811663,,811661.804,804145.438,804154,804178.77,811695.136,,point and name,
,Visor Instruction for delay,canvas.Screen,8_7_2,2018-12-14T20:29:26.477Z,,,,,15016.066,timeout,,,,,,,,,"[""moon"",""owl"",""flower"",""apple"",""comb""]",5,,,,,,,826679,,826677.87,811678.47,811664,811695.136,826711.202,,point and name,
,Recall,html.Screen,8_7_3,2018-12-14T20:29:39.723Z,,,FALSE,"[false,true,false,true,true]",13212.798,done,,"[""owl"",""moon"",""flag"",""flower"",""apple"",""comb"",""pencil""]",,,,,,"[""flower"",""owl"",""moon"",""apple"",""comb"",""flag""]","[""moon"",""owl"",""flower"",""apple"",""comb""]",5,,,,,,,839925,,839924,826677.87,826680,826711.202,839960.672,,point and name,
,Trial sequence for Point and Name,flow.Sequence,8_7,2018-12-14T20:29:39.723Z,,,,,39061.764,completion,,,,,,,,,"[""moon"",""owl"",""flower"",""apple"",""comb""]",5,,,,,,,839925,,839924,800828.904,800840,800862.236,839960.672,,point and name,
,Point and Name task,flow.Loop,8,2018-12-14T20:29:39.724Z,,,,,258336.326,completion,,,,,,,,,,,,,,,,,839926,,839924,581554.342,581567,581587.674,839960.672,,,
,Goodbye Screen,html.Screen,9,2018-12-14T20:29:40.743Z,,,,,999.96,timeout,,,,,,,,,,,,,,,,,840946,,840943.966,839927.34,839927,839960.672,840960.632,,,
,root,flow.Sequence,,2018-12-14T20:29:40.746Z,,,,,840433.048,completion,,,,,,,,,,,,,,,,,840948,,840943.966,460.92,482,510.918,840977.298,,,
