participant_id,sender,sender_type,sender_id,timestamp,meta,,correct,correctPositions,duration,ended_on,lab_name,options,participant_age,participant_gender,participant_group,picture,response,responses,span,span_length,strategy_cumulative,strategy_no_choice,strategy_none,strategy_rehearse,strategy_response,time_commit,time_duration,time_end,time_render,time_run,timing,trial type
444,Participant ID,html.Form,0,2018-06-05T12:59:12.865Z,"{""location"":""https://labjs.felixhenninger.com/api/labjs_preview/index.html"",""userAgent"":""Mozilla/5.0 (Windows NT 10.0; Win64; x64) AppleWebKit/537.36 (KHTML, like Gecko) Chrome/66.0.3359.181 Safari/537.36"",""platform"":""Win32"",""language"":""en-US"",""locale"":""en-US"",""timeZone"":""America/Chicago"",""timezoneOffset"":300,""screen_width"":1280,""screen_height"":720,""scroll_width"":1267,""scroll_height"":648,""window_innerWidth"":1283,""window_innerHeight"":672,""devicePixelRatio"":1.5}",,,,69527.20000012778,form submission,EWML,,238,1,5,,,,,,,,,,,70024.79999978095,,70023.30000000075,,496.0999998729676,,
,Welcome,html.Screen,1,2018-06-05T13:00:37.108Z,,,,,84239.70000003465,response,,,,,,,b to continue,,,,,,,,,154268.59999983571,,154266.0999998916,,70026.39999985695,,
,Get-set-go,html.Screen,2_0_0,2018-06-05T13:00:47.747Z,,,,,10635.50000009127,response,,,,,,,continue,,"[""owl"",""flower""]",2,,,,,,164906.89999982715,,164905.99999995902,,154270.49999986775,,practice
,Learning phase,flow.Loop,2_0_1,2018-06-05T13:00:50.768Z,,,,,3019.8000001255423,completion,,,,,,,,,"[""owl"",""flower""]",2,,,,,,167927.4999999907,,167926.99999990873,,164907.1999997832,,practice
,Recall,html.Screen,2_0_2,2018-06-05T13:01:01.590Z,,,true,"[true,true]",10822.399999946356,done,,"[""moon"",""flag"",""owl"",""flower"",""comb"",""apple"",""pencil""]",,,,,,"[""owl"",""flower""]","[""owl"",""flower""]",2,,,,,,178750.89999986812,,178750.49999984913,,167928.09999990277,,practice
,Trial sequence for Recall,flow.Sequence,2_0,2018-06-05T13:01:01.591Z,,,,,24480.999999912456,completion,,,,,,,,,"[""owl"",""flower""]",2,,,,,,178751.29999988712,,178751.19999982417,,154270.1999999117,,practice
,Get-set-go,html.Screen,2_1_0,2018-06-05T13:02:27.039Z,,,,,85445.30000002123,response,,,,,,,continue,,"[""comb"",""owl"",""apple"",""pencil""]",4,,,,,,264198.19999998435,,264196.99999992736,,178751.69999990612,,practice
,Learning phase,flow.Loop,2_1_1,2018-06-05T13:02:33.074Z,,,,,6035.099999979138,completion,,,,,,,,,"[""comb"",""owl"",""apple"",""pencil""]",4,,,,,,270234.2999998946,,270233.59999991953,,264198.4999999404,,practice
,Recall,html.Screen,2_1_2,2018-06-05T13:02:43.509Z,,,true,"[true,true,true,true]",10433.799999998882,done,,"[""owl"",""pencil"",""flag"",""moon"",""apple"",""comb"",""flower""]",,,,,,"[""comb"",""owl"",""apple"",""pencil""]","[""comb"",""owl"",""apple"",""pencil""]",4,,,,,,280669.09999982454,,280668.7999998685,,270234.9999998696,,practice
,Trial sequence for Recall,flow.Sequence,2_1,2018-06-05T13:02:43.509Z,,,,,101917.79999993742,completion,,,,,,,,,"[""comb"",""owl"",""apple"",""pencil""]",4,,,,,,280669.4000000134,,280669.29999995045,,178751.50000001304,,practice
,Practice picture span task,flow.Loop,2,2018-06-05T13:02:43.510Z,,,,,126399.99999990687,completion,,,,,,,,,,,,,,,,280669.7999997996,,280669.5999999065,,154269.59999999963,,
,Ready to begin,canvas.Screen,3,2018-06-05T13:03:01.590Z,,,,,18073.899999959394,response,,,,,,,continue to task,,,,,,,,,298750.69999997504,,298748.5999998171,,280674.6999998577,,
,Visor Practice,canvas.Screen,4,2018-06-05T13:03:59.050Z,,,,,57455.19999996759,response,,,,,,,end visor practice,,,,,,,,,356210.0999997929,,356209.0999998618,,298753.8999998942,,
,Get-set-go,html.Screen,5_0_0_0,2018-06-05T13:11:16.213Z,,,,,437159.300000174,response,,,,,,,continue,,"[""pencil"",""comb""]",2,,,,,,793373.499999987,15000,793370.8999999799,,356211.5999998059,delayed,experimental
,Learning phase,flow.Loop,5_0_0_1,2018-06-05T13:11:19.224Z,,,,,3009.5999999903142,completion,,,,,,,,,"[""pencil"",""comb""]",2,,,,,,796384.2999998014,15000,796383.5999998264,,793373.9999998361,delayed,experimental
,Visor Instruction for delay,canvas.Screen,5_0_0_2,2018-06-05T13:11:34.230Z,,,,,15002.099999925122,timeout,,,,,,,,,"[""pencil"",""comb""]",2,,,,,,811390.4999999795,15000,811389.5999998786,,796387.4999999534,delayed,experimental
,Recall,html.Screen,5_0_0_3,2018-06-05T13:11:51.333Z,,,true,"[true,true]",17100.899999961257,done,,"[""flower"",""comb"",""moon"",""apple"",""owl"",""flag"",""pencil""]",,,,,,"[""pencil"",""comb""]","[""pencil"",""comb""]",2,,,,,,828493.5999999288,15000,828492.0999999158,,811391.1999999546,delayed,experimental
,Trial sequence for Recall,flow.Sequence,5_0_0,2018-06-05T13:11:51.335Z,,,,,472282.9999998212,completion,,,,,,,,,"[""pencil"",""comb""]",2,,,,,,828495.4999999609,15000,828494.499999797,,356211.4999999758,delayed,experimental
,Get-set-go,html.Screen,5_0_1_0,2018-06-05T13:11:55.355Z,,,,,4016.4000000804663,response,,,,,,,continue,,"[""flower"",""owl""]",2,,,,,,832515.4999999795,15000,832513.4999998845,,828497.099999804,delayed,experimental
,Learning phase,flow.Loop,5_0_1_1,2018-06-05T13:11:58.366Z,,,,,3010.299999965355,completion,,,,,,,,,"[""flower"",""owl""]",2,,,,,,835526.8999999389,15000,835526.299999794,,832515.9999998286,delayed,experimental
,Visor Instruction for delay,canvas.Screen,5_0_1_2,2018-06-05T13:12:13.380Z,,,,,15009.999999776483,timeout,,,,,,,,,"[""flower"",""owl""]",2,,,,,,850539.9999998044,15000,850539.5999997854,,835529.6000000089,delayed,experimental
,Recall,html.Screen,5_0_1_3,2018-06-05T13:12:16.512Z,,,true,"[true,true]",3132.1999998763204,done,,"[""comb"",""pencil"",""apple"",""flag"",""moon"",""owl"",""flower""]",,,,,,"[""flower"",""owl""]","[""flower"",""owl""]",2,,,,,,853672.5999999326,15000,853672.3999998067,,850540.1999999303,delayed,experimental
,Trial sequence for Recall,flow.Sequence,5_0_1,2018-06-05T13:12:16.513Z,,,,,25176.399999996647,completion,,,,,,,,,"[""flower"",""owl""]",2,,,,,,853672.9999999516,15000,853672.7999998257,,828496.399999829,delayed,experimental
,Get-set-go,html.Screen,5_0_2_0,2018-06-05T13:12:18.576Z,,,,,2059.899999992922,response,,,,,,,continue,,"[""flower"",""pencil"",""flag""]",3,,,,,,855736.3999998197,15000,855733.1999999005,,853673.2999999076,delayed,experimental
,Learning phase,flow.Loop,5_0_2_1,2018-06-05T13:12:23.106Z,,,,,4528.600000077859,completion,,,,,,,,,"[""flower"",""pencil"",""flag""]",3,,,,,,860266.1999999546,15000,860265.6999998726,,855737.0999997947,delayed,experimental
,Visor Instruction for delay,canvas.Screen,5_0_2_2,2018-06-05T13:12:38.117Z,,,,,15007.100000046194,timeout,,,,,,,,,"[""flower"",""pencil"",""flag""]",3,,,,,,875276.299999794,15000,875275.6999998819,,860268.5999998357,delayed,experimental
,Recall,html.Screen,5_0_2_3,2018-06-05T13:12:47.323Z,,,true,"[true,true,true]",9206.100000068545,done,,"[""comb"",""flag"",""pencil"",""moon"",""apple"",""flower"",""owl""]",,,,,,"[""flower"",""pencil"",""flag""]","[""flower"",""pencil"",""flag""]",3,,,,,,884483.6999999825,15000,884483.1999999005,,875277.099999832,delayed,experimental
,Trial sequence for Recall,flow.Sequence,5_0_2,2018-06-05T13:12:47.325Z,,,,,30810.70000003092,completion,,,,,,,,,"[""flower"",""pencil"",""flag""]",3,,,,,,884484.4999997877,15000,884483.9999999385,,853673.2999999076,delayed,experimental
,Get-set-go,html.Screen,5_0_3_0,2018-06-05T13:13:20.338Z,,,,,33009.899999946356,response,,,,,,,continue,,"[""owl"",""apple"",""comb""]",3,,,,,,917497.699999949,15000,917495.299999835,,884485.3999998886,delayed,experimental
,Learning phase,flow.Loop,5_0_3_1,2018-06-05T13:13:24.868Z,,,,,4529.600000008941,completion,,,,,,,,,"[""owl"",""apple"",""comb""]",3,,,,,,922028.299999889,15000,922027.799999807,,917498.1999997981,delayed,experimental
,Visor Instruction for delay,canvas.Screen,5_0_3_2,2018-06-05T13:13:39.877Z,,,,,15004.900000058115,timeout,,,,,,,,,"[""owl"",""apple"",""comb""]",3,,,,,,937036.7999998853,15000,937035.9999998473,,922031.0999997891,delayed,experimental
,Recall,html.Screen,5_0_3_3,2018-06-05T13:13:43.752Z,,,true,"[true,true,true]",3873.20000003092,done,,"[""pencil"",""moon"",""apple"",""flag"",""flower"",""owl"",""comb""]",,,,,,"[""owl"",""apple"",""comb""]","[""owl"",""apple"",""comb""]",3,,,,,,940911.8999999482,15000,940910.6999998912,,937037.4999998603,delayed,experimental
,Trial sequence for Recall,flow.Sequence,5_0_3,2018-06-05T13:13:43.753Z,,,,,56427.69999988377,completion,,,,,,,,,"[""owl"",""apple"",""comb""]",3,,,,,,940913.4999997914,15000,940912.8999998793,,884485.1999999955,delayed,experimental
,Get-set-go,html.Screen,5_0_4_0,2018-06-05T13:13:45.573Z,,,,,1813.700000056997,response,,,,,,,continue,,"[""apple"",""comb"",""flag"",""moon""]",4,,,,,,942732.7999998815,15000,942728.2000000123,,940914.4999999553,delayed,experimental
,Learning phase,flow.Loop,5_0_4_1,2018-06-05T13:13:51.600Z,,,,,6026.199999963865,completion,,,,,,,,,"[""apple"",""comb"",""flag"",""moon""]",4,,,,,,948760.4999998584,15000,948759.8999999464,,942733.6999999825,delayed,experimental
,Visor Instruction for delay,canvas.Screen,5_0_4_2,2018-06-05T13:14:06.613Z,,,,,15008.400000166148,timeout,,,,,,,,,"[""apple"",""comb"",""flag"",""moon""]",4,,,,,,963772.5999997929,15000,963771.7999999877,,948763.3999998216,delayed,experimental
,Recall,html.Screen,5_0_4_3,2018-06-05T13:14:12.979Z,,,true,"[true,true,true,true]",6364.899999927729,done,,"[""owl"",""pencil"",""comb"",""apple"",""flag"",""moon"",""flower""]",,,,,,"[""apple"",""comb"",""flag"",""moon""]","[""apple"",""comb"",""flag"",""moon""]",4,,,,,,970139.3999999855,15000,970138.1999999285,,963773.3000000007,delayed,experimental
,Trial sequence for Recall,flow.Sequence,5_0_4,2018-06-05T13:14:12.981Z,,,,,29225.899999961257,completion,,,,,,,,,"[""apple"",""comb"",""flag"",""moon""]",4,,,,,,970140.6999998726,15000,970140.0999999605,,940914.1999999993,delayed,experimental
,Get-set-go,html.Screen,5_0_5_0,2018-06-05T13:14:53.741Z,,,,,40757.400000002235,response,,,,,,,continue,,"[""pencil"",""owl"",""flower"",""comb""]",4,,,,,,1010900.6999998819,15000,1010899.2999999318,,970141.8999999296,delayed,experimental
,Learning phase,flow.Loop,5_0_5_1,2018-06-05T13:14:59.765Z,,,,,6023.599999956787,completion,,,,,,,,,"[""pencil"",""owl"",""flower"",""comb""]",4,,,,,,1016925.0999998767,15000,1016924.5999997947,,1010900.999999838,delayed,experimental
,Visor Instruction for delay,canvas.Screen,5_0_5_2,2018-06-05T13:15:14.788Z,,,,,15018.39999994263,timeout,,,,,,,,,"[""pencil"",""owl"",""flower"",""comb""]",4,,,,,,1031946.6999999713,15000,1031946.0999998264,,1016927.6999998838,delayed,experimental
,Recall,html.Screen,5_0_5_3,2018-06-05T13:15:19.795Z,,,true,"[true,true,true,true]",5005.899999989197,done,,"[""flower"",""apple"",""owl"",""pencil"",""moon"",""flag"",""comb""]",,,,,,"[""pencil"",""owl"",""flower"",""comb""]","[""pencil"",""owl"",""flower"",""comb""]",4,,,,,,1036953.7999997847,15000,1036953.3999999985,,1031947.5000000093,delayed,experimental
,Trial sequence for Recall,flow.Sequence,5_0_5,2018-06-05T13:15:19.795Z,,,,,66812.5,completion,,,,,,,,,"[""pencil"",""owl"",""flower"",""comb""]",4,,,,,,1036954.1999998037,15000,1036953.9999999106,,970141.4999999106,delayed,experimental
,Get-set-go,html.Screen,5_0_6_0,2018-06-05T13:15:25.232Z,,,,,5434.499999973923,response,,,,,,,continue,,"[""owl"",""pencil"",""flag"",""apple"",""comb""]",5,,,,,,1042391.2999997847,15000,1042389.0999997966,,1036954.5999998227,delayed,experimental
,Learning phase,flow.Loop,5_0_6_1,2018-06-05T13:15:32.783Z,,,,,7547.899999888614,completion,,,,,,,,,"[""owl"",""pencil"",""flag"",""apple"",""comb""]",5,,,,,,1049942.5999999512,15000,1049941.6999998502,,1042393.7999999616,delayed,experimental
,Visor Instruction for delay,canvas.Screen,5_0_6_2,2018-06-05T13:15:47.797Z,,,,,15011.599999852479,timeout,,,,,,,,,"[""owl"",""pencil"",""flag"",""apple"",""comb""]",5,,,,,,1064957.9999998678,15000,1064957.5999998488,,1049945.9999999963,delayed,experimental
,Recall,html.Screen,5_0_6_3,2018-06-05T13:15:59.417Z,,,true,"[true,true,true,true,true]",11618.199999909848,done,,"[""apple"",""pencil"",""flower"",""flag"",""moon"",""comb"",""owl""]",,,,,,"[""owl"",""pencil"",""flag"",""apple"",""comb""]","[""owl"",""pencil"",""flag"",""apple"",""comb""]",5,,,,,,1076576.8999999855,15000,1076576.3999999035,,1064958.1999999937,delayed,experimental
,Trial sequence for Recall,flow.Sequence,5_0_6,2018-06-05T13:15:59.417Z,,,,,39622.50000005588,completion,,,,,,,,,"[""owl"",""pencil"",""flag"",""apple"",""comb""]",5,,,,,,1076577.1999999415,15000,1076577.0999998786,,1036954.5999998227,delayed,experimental
,Get-set-go,html.Screen,5_0_7_0,2018-06-05T13:16:01.758Z,,,,,2338.2999999448657,response,,,,,,,continue,,"[""moon"",""flower"",""pencil"",""apple"",""comb""]",5,,,,,,1078918.4999999125,15000,1078916.6999999434,,1076578.3999999985,delayed,experimental
,Learning phase,flow.Loop,5_0_7_1,2018-06-05T13:16:09.320Z,,,,,7561.100000049919,completion,,,,,,,,,"[""moon"",""flower"",""pencil"",""apple"",""comb""]",5,,,,,,1086480.4000000004,15000,1086479.8999999184,,1078918.7999998685,delayed,experimental
,Visor Instruction for delay,canvas.Screen,5_0_7_2,2018-06-05T13:16:24.331Z,,,,,15010.09999983944,timeout,,,,,,,,,"[""moon"",""flower"",""pencil"",""apple"",""comb""]",5,,,,,,1101491.9999998529,15000,1101491.89999979,,1086481.7999999505,delayed,experimental
,Recall,html.Screen,5_0_7_3,2018-06-05T13:16:33.111Z,,,false,"[true,true,false,false,true]",8778.399999951944,done,,"[""pencil"",""flower"",""owl"",""comb"",""moon"",""flag"",""apple""]",,,,,,"[""moon"",""flower"",""apple"",""pencil"",""comb""]","[""moon"",""flower"",""pencil"",""apple"",""comb""]",5,,,,,,1110271.2999999058,15000,1110270.5999999307,,1101492.1999999788,delayed,experimental
,Trial sequence for Recall,flow.Sequence,5_0_7,2018-06-05T13:16:33.113Z,,,,,33693.69999994524,completion,,,,,,,,,"[""moon"",""flower"",""pencil"",""apple"",""comb""]",5,,,,,,1110272.5999997929,15000,1110271.9999998808,,1076578.2999999356,delayed,experimental
,Picture span task,flow.Loop,5_0,2018-06-05T13:16:33.114Z,,,,,754061.800000025,completion,,,,,,,,,,,,,,,,1110273.8999999128,15000,1110273.0999998748,,356211.29999984987,delayed,
,Get-set-go,html.Screen,5_1_0_0,2018-06-05T13:17:15.875Z,,,,,42756.000000052154,response,,,,,,,continue,,"[""apple"",""owl""]",2,,,,,,1153034.7999997903,0,1153032.6999998651,,1110276.699999813,immediate,experimental
,Learning phase,flow.Loop,5_1_0_1,2018-06-05T13:17:18.890Z,,,,,3014.10000002943,completion,,,,,,,,,"[""apple"",""owl""]",2,,,,,,1156049.4999999646,0,1156049.2999998387,,1153035.1999998093,immediate,experimental
,Visor Instruction for delay,canvas.Screen,5_1_0_2,2018-06-05T13:17:18.891Z,,,,,0.09999983012676239,skipped,,,,,,,,,"[""apple"",""owl""]",2,,,,,,1156050.6999997888,0,1156050.6999997888,,1156050.5999999586,immediate,experimental
,Recall,html.Screen,5_1_0_3,2018-06-05T13:17:24.641Z,,,true,"[true,true]",5747.599999886006,done,,"[""flower"",""moon"",""apple"",""flag"",""pencil"",""owl"",""comb""]",,,,,,"[""apple"",""owl""]","[""apple"",""owl""]",2,,,,,,1161800.7999998517,0,1161798.5999998637,,1156050.9999999776,immediate,experimental
,Trial sequence for Recall,flow.Sequence,5_1_0,2018-06-05T13:17:24.643Z,,,,,51525.20000003278,completion,,,,,,,,,"[""apple"",""owl""]",2,,,,,,1161802.3999999277,0,1161801.4999998268,,1110276.299999794,immediate,experimental
,Get-set-go,html.Screen,5_1_1_0,2018-06-05T13:17:26.227Z,,,,,1581.5000000875443,response,,,,,,,continue,,"[""pencil"",""apple""]",2,,,,,,1163387.6999998465,0,1163385.8999998774,,1161804.39999979,immediate,experimental
,Learning phase,flow.Loop,5_1_1_1,2018-06-05T13:17:29.243Z,,,,,3014.7000001743436,completion,,,,,,,,,"[""pencil"",""apple""]",2,,,,,,1166403.199999826,0,1166402.699999977,,1163387.9999998026,immediate,experimental
,Visor Instruction for delay,canvas.Screen,5_1_1_2,2018-06-05T13:17:29.247Z,,,,,0.10000006295740604,skipped,,,,,,,,,"[""pencil"",""apple""]",2,,,,,,1166406.4999998081,0,1166405.999999959,,1166405.899999896,immediate,experimental
,Recall,html.Screen,5_1_1_3,2018-06-05T13:17:33.670Z,,,true,"[true,true]",4422.600000165403,done,,"[""flag"",""apple"",""moon"",""owl"",""pencil"",""flower"",""comb""]",,,,,,"[""pencil"",""apple""]","[""pencil"",""apple""]",2,,,,,,1170830.3999998607,0,1170829.9000000115,,1166407.2999998461,immediate,experimental
,Trial sequence for Recall,flow.Sequence,5_1_1,2018-06-05T13:17:33.671Z,,,,,9026.799999875948,completion,,,,,,,,,"[""pencil"",""apple""]",2,,,,,,1170831.0000000056,0,1170830.6999998167,,1161803.8999999408,immediate,experimental
,Get-set-go,html.Screen,5_1_2_0,2018-06-05T13:17:34.898Z,,,,,1225.1999999862164,response,,,,,,,continue,,"[""moon"",""owl"",""apple""]",3,,,,,,1172058.3999999799,0,1172056.699999841,,1170831.4999998547,immediate,experimental
,Learning phase,flow.Loop,5_1_2_1,2018-06-05T13:17:39.442Z,,,,,4543.3000000193715,completion,,,,,,,,,"[""moon"",""owl"",""apple""]",3,,,,,,1176602.0999997854,0,1176601.8999998923,,1172058.599999873,immediate,experimental
,Visor Instruction for delay,canvas.Screen,5_1_2_2,2018-06-05T13:17:39.443Z,,,,,0,skipped,,,,,,,,,"[""moon"",""owl"",""apple""]",3,,,,,,1176603.3999999054,0,1176603.2000000123,,1176603.2000000123,immediate,experimental
,Recall,html.Screen,5_1_2_3,2018-06-05T13:17:43.881Z,,,true,"[true,true,true]",4437.399999937043,done,,"[""apple"",""moon"",""pencil"",""comb"",""flower"",""flag"",""owl""]",,,,,,"[""moon"",""owl"",""apple""]","[""moon"",""owl"",""apple""]",3,,,,,,1181041.2999999244,0,1181041.0999997985,,1176603.6999998614,immediate,experimental
,Trial sequence for Recall,flow.Sequence,5_1_2,2018-06-05T13:17:43.882Z,,,,,10210.100000025705,completion,,,,,,,,,"[""moon"",""owl"",""apple""]",3,,,,,,1181041.8000000063,0,1181041.4999998175,,1170831.3999997918,immediate,experimental
,Get-set-go,html.Screen,5_1_3_0,2018-06-05T13:17:45.614Z,,,,,1728.7999999243766,response,,,,,,,continue,,"[""moon"",""owl"",""flag""]",3,,,,,,1182773.7999998499,0,1182770.7999998238,,1181041.9999998994,immediate,experimental
,Learning phase,flow.Loop,5_1_3_1,2018-06-05T13:17:50.140Z,,,,,4524.399999994785,completion,,,,,,,,,"[""moon"",""owl"",""flag""]",3,,,,,,1187299.2999998387,0,1187298.8999998197,,1182774.499999825,immediate,experimental
,Visor Instruction for delay,canvas.Screen,5_1_3_2,2018-06-05T13:17:50.142Z,,,,,0,skipped,,,,,,,,,"[""moon"",""owl"",""flag""]",3,,,,,,1187302.0999999717,0,1187301.6999999527,,1187301.6999999527,immediate,experimental
,Recall,html.Screen,5_1_3_3,2018-06-05T13:17:53.825Z,,,true,"[true,true,true]",3682.1999999228865,done,,"[""comb"",""pencil"",""flower"",""moon"",""flag"",""apple"",""owl""]",,,,,,"[""moon"",""owl"",""flag""]","[""moon"",""owl"",""flag""]",3,,,,,,1190985.0999999326,0,1190984.8999998067,,1187302.6999998838,immediate,experimental
,Trial sequence for Recall,flow.Sequence,5_1_3,2018-06-05T13:17:53.826Z,,,,,9943.399999989197,completion,,,,,,,,,"[""moon"",""owl"",""flag""]",3,,,,,,1190985.4999999516,0,1190985.3999998886,,1181041.9999998994,immediate,experimental
,Get-set-go,html.Screen,5_1_4_0,2018-06-05T13:17:55.597Z,,,,,1768.6000000685453,response,,,,,,,continue,,"[""apple"",""pencil"",""flag"",""moon""]",4,,,,,,1192756.4999999013,0,1192754.2999999132,,1190985.6999998447,immediate,experimental
,Learning phase,flow.Loop,5_1_4_1,2018-06-05T13:18:01.644Z,,,,,6046.799999894574,completion,,,,,,,,,"[""apple"",""pencil"",""flag"",""moon""]",4,,,,,,1198804.2999999598,0,1198803.6999998149,,1192756.8999999203,immediate,experimental
,Visor Instruction for delay,canvas.Screen,5_1_4_2,2018-06-05T13:18:01.648Z,,,,,0.10000006295740604,skipped,,,,,,,,,"[""apple"",""pencil"",""flag"",""moon""]",4,,,,,,1198807.7000000048,0,1198807.2999999858,,1198807.199999923,immediate,experimental
,Recall,html.Screen,5_1_4_3,2018-06-05T13:18:10.417Z,,,true,"[true,true,true,true]",8768.900000024587,done,,"[""apple"",""flag"",""moon"",""pencil"",""flower"",""owl"",""comb""]",,,,,,"[""apple"",""pencil"",""flag"",""moon""]","[""apple"",""pencil"",""flag"",""moon""]",4,,,,,,1207577.7999998536,0,1207577.1999999415,,1198808.299999917,immediate,experimental
,Trial sequence for Recall,flow.Sequence,5_1_4,2018-06-05T13:18:10.418Z,,,,,16592.399999964982,completion,,,,,,,,,"[""apple"",""pencil"",""flag"",""moon""]",4,,,,,,1207578.4999998286,0,1207578.0999998096,,1190985.6999998447,immediate,experimental
,Get-set-go,html.Screen,5_1_5_0,2018-06-05T13:18:11.898Z,,,,,1477.100000018254,response,,,,,,,continue,,"[""comb"",""pencil"",""flower"",""moon""]",4,,,,,,1209057.999999961,0,1209056.299999822,,1207579.1999998037,immediate,experimental
,Learning phase,flow.Loop,5_1_5_1,2018-06-05T13:18:17.933Z,,,,,6034.100000048056,completion,,,,,,,,,"[""comb"",""pencil"",""flower"",""moon""]",4,,,,,,1215092.899999814,0,1215092.399999965,,1209058.299999917,immediate,experimental
,Visor Instruction for delay,canvas.Screen,5_1_5_2,2018-06-05T13:18:17.937Z,,,,,0.10000006295740604,skipped,,,,,,,,,"[""comb"",""pencil"",""flower"",""moon""]",4,,,,,,1215096.2999998592,0,1215095.80000001,,1215095.699999947,immediate,experimental
,Recall,html.Screen,5_1_5_3,2018-06-05T13:18:26.547Z,,,true,"[true,true,true,true]",8609.399999957532,done,,"[""apple"",""owl"",""flag"",""comb"",""flower"",""pencil"",""moon""]",,,,,,"[""comb"",""pencil"",""flower"",""moon""]","[""comb"",""pencil"",""flower"",""moon""]",4,,,,,,1223706.7999998108,0,1223706.3999997918,,1215096.9999998342,immediate,experimental
,Trial sequence for Recall,flow.Sequence,5_1_5,2018-06-05T13:18:26.548Z,,,,,16128.200000151992,completion,,,,,,,,,"[""comb"",""pencil"",""flower"",""moon""]",4,,,,,,1223707.2999998927,0,1223707.0999999996,,1207578.8999998476,immediate,experimental
,Get-set-go,html.Screen,5_1_6_0,2018-06-05T13:18:28.427Z,,,,,1878.1999999191612,response,,,,,,,continue,,"[""comb"",""flower"",""apple"",""flag"",""moon""]",5,,,,,,1225587.5999999698,0,1225585.9999998938,,1223707.7999999747,immediate,experimental
,Learning phase,flow.Loop,5_1_6_1,2018-06-05T13:18:35.975Z,,,,,7546.400000108406,completion,,,,,,,,,"[""comb"",""flower"",""apple"",""flag"",""moon""]",5,,,,,,1233134.7999998834,0,1233134.1999999713,,1225587.799999863,immediate,experimental
,Visor Instruction for delay,canvas.Screen,5_1_6_2,2018-06-05T13:18:35.978Z,,,,,0.10000006295740604,skipped,,,,,,,,,"[""comb"",""flower"",""apple"",""flag"",""moon""]",5,,,,,,1233138.0999998655,0,1233137.4999999534,,1233137.3999998905,immediate,experimental
,Recall,html.Screen,5_1_6_3,2018-06-05T13:18:42.979Z,,,true,"[true,true,true,true,true]",6998.9000000059605,done,,"[""comb"",""flag"",""flower"",""apple"",""owl"",""pencil"",""moon""]",,,,,,"[""comb"",""flower"",""apple"",""flag"",""moon""]","[""comb"",""flower"",""apple"",""flag"",""moon""]",5,,,,,,1240138.4999998845,0,1240138.0999998655,,1233139.1999998596,immediate,experimental
,Trial sequence for Recall,flow.Sequence,5_1_6,2018-06-05T13:18:42.979Z,,,,,16431.100000161678,completion,,,,,,,,,"[""comb"",""flower"",""apple"",""flag"",""moon""]",5,,,,,,1240138.8999999035,0,1240138.7000000104,,1223707.5999998488,immediate,experimental
,Get-set-go,html.Screen,5_1_7_0,2018-06-05T13:20:21.468Z,,,,,98487.39999998361,response,,,,,,,continue,,"[""apple"",""flag"",""comb"",""moon"",""owl""]",5,,,,,,1338628.1999999192,0,1338627.199999988,,1240139.8000000045,immediate,experimental
,Learning phase,flow.Loop,5_1_7_1,2018-06-05T13:20:29.027Z,,,,,7558.399999979883,completion,,,,,,,,,"[""apple"",""flag"",""comb"",""moon"",""owl""]",5,,,,,,1346187.1999998111,0,1346186.7999997921,,1338628.3999998122,immediate,experimental
,Visor Instruction for delay,canvas.Screen,5_1_7_2,2018-06-05T13:20:29.030Z,,,,,0,skipped,,,,,,,,,"[""apple"",""flag"",""comb"",""moon"",""owl""]",5,,,,,,1346189.8999998812,0,1346189.5999999251,,1346189.5999999251,immediate,experimental
,Recall,html.Screen,5_1_7_3,2018-06-05T13:20:36.217Z,,,true,"[true,true,true,true,true]",7186.300000175834,done,,"[""owl"",""flag"",""flower"",""moon"",""comb"",""pencil"",""apple""]",,,,,,"[""apple"",""flag"",""comb"",""moon"",""owl""]","[""apple"",""flag"",""comb"",""moon"",""owl""]",5,,,,,,1353377.0999999251,0,1353376.799999969,,1346190.4999997932,immediate,experimental
,Trial sequence for Recall,flow.Sequence,5_1_7,2018-06-05T13:20:36.217Z,,,,,113238.09999995865,completion,,,,,,,,,"[""apple"",""flag"",""comb"",""moon"",""owl""]",5,,,,,,1353377.3999998812,0,1353377.2999998182,,1240139.1999998596,immediate,experimental
,Picture span task,flow.Loop,5_1,2018-06-05T13:20:36.217Z,,,,,243101.5999999363,completion,,,,,,,,,,,,,,,,1353377.6999998372,0,1353377.4999999441,,1110275.9000000078,immediate,
,Counterbalancing Loop,flow.Loop,5,2018-06-05T13:20:36.218Z,,,,,997166.5000000503,completion,,,,,,,,,,,,,,,,1353377.7999999002,,1353377.6999998372,,356211.1999997869,,
,Strategy,html.Form,6,2018-06-05T13:22:18.077Z,,,,,101858.70000021532,form submission,,,,,,,,,,,false,false,false,false,"I said the first letter to myself repeatedly, adding the new letter each time while picturing the image in my head.",1455237.0999997947,,1455236.7000000086,,1353377.9999997932,,
,Picture Presentation,html.Screen,7_0_0,2018-06-05T13:22:21.413Z,,,,,3333.1000001635402,response,,,,,,apple,yes,,,,,,,,,1458572.6999999024,,1458570.9999999963,,1455237.8999998327,,picture naming
,(Optional) naming,html.Form,7_0_1,2018-06-05T13:22:21.417Z,,,,,0,skipped,,,,,,apple,,,,,,,,,,1458577.3000000045,,1458576.6999998596,,1458576.6999998596,,picture naming
,Naming trial,flow.Sequence,7_0,2018-06-05T13:22:21.419Z,,,,,3339.299999875948,completion,,,,,,apple,,,,,,,,,,1458578.3999999985,,1458577.0999998786,,1455237.8000000026,,picture naming
,Picture Presentation,html.Screen,7_1_0,2018-06-05T13:22:22.888Z,,,,,1466.5000000968575,response,,,,,,flag,yes,,,,,,,,,1460047.2999999765,,1460046.0999999195,,1458579.5999998227,,picture naming
,(Optional) naming,html.Form,7_1_1,2018-06-05T13:22:22.890Z,,,,,0,skipped,,,,,,flag,,,,,,,,,,1460049.7999999207,,1460049.3999999017,,1460049.3999999017,,picture naming
,Naming trial,flow.Sequence,7_1,2018-06-05T13:22:22.890Z,,,,,1470.5000000540167,completion,,,,,,flag,,,,,,,,,,1460050.3999998327,,1460049.6999998577,,1458579.1999998037,,picture naming
,Picture Presentation,html.Screen,7_2_0,2018-06-05T13:22:25.868Z,,,,,2975.6000000052154,response,,,,,,comb,yes,,,,,,,,,1463028.499999782,,1463027.0000000019,,1460051.3999999966,,picture naming
,(Optional) naming,html.Form,7_2_1,2018-06-05T13:22:25.871Z,,,,,0,skipped,,,,,,comb,,,,,,,,,,1463030.499999877,,1463030.099999858,,1463030.099999858,,picture naming
,Naming trial,flow.Sequence,7_2,2018-06-05T13:22:25.871Z,,,,,2979.2000001762062,completion,,,,,,comb,,,,,,,,,,1463030.999999959,,1463030.299999984,,1460051.0999998078,,picture naming
,Picture Presentation,html.Screen,7_3_0,2018-06-05T13:22:27.977Z,,,,,2103.300000075251,response,,,,,,owl,yes,,,,,,,,,1465136.6999999154,,1465134.8999999464,,1463031.599999871,,picture naming
,(Optional) naming,html.Form,7_3_1,2018-06-05T13:22:27.979Z,,,,,0,skipped,,,,,,owl,,,,,,,,,,1465138.9999999665,,1465138.5999999475,,1465138.5999999475,,picture naming
,Naming trial,flow.Sequence,7_3,2018-06-05T13:22:27.980Z,,,,,2107.30000003241,completion,,,,,,owl,,,,,,,,,,1465139.4999998156,,1465138.7999998406,,1463031.4999998081,,picture naming
,Picture Presentation,html.Screen,7_4_0,2018-06-05T13:22:29.976Z,,,,,1994.2000000737607,response,,,,,,moon,yes,,,,,,,,,1467135.4999998584,,1467134.3999998644,,1465140.1999997906,,picture naming
,(Optional) naming,html.Form,7_4_1,2018-06-05T13:22:29.978Z,,,,,0,skipped,,,,,,moon,,,,,,,,,,1467137.6999998465,,1467137.0999999344,,1467137.0999999344,,picture naming
,Naming trial,flow.Sequence,7_4,2018-06-05T13:22:29.979Z,,,,,1997.5000000558794,completion,,,,,,moon,,,,,,,,,,1467138.2999999914,,1467137.4999999534,,1465139.9999998976,,picture naming
,Picture Presentation,html.Screen,7_5_0,2018-06-05T13:22:31.423Z,,,,,1442.4999998882413,response,,,,,,pencil,no,,,,,,,,,1468582.7999999747,,1468581.4999998547,,1467138.9999999665,,picture naming
,(Optional) naming,html.Form,7_5_1,2018-06-05T13:22:53.138Z,,,,,21713.19999988191,form submission,,,,,,pencil,pen,,,,,,,,,1490297.6999999955,,1490297.4999998696,,1468584.2999999877,,picture naming
,Naming trial,flow.Sequence,7_5,2018-06-05T13:22:53.138Z,,,,,23158.800000092015,completion,,,,,,pencil,,,,,,,,,,1490297.8999998886,,1490297.5999999326,,1467138.7999998406,,picture naming
,Picture Presentation,html.Screen,7_6_0,2018-06-05T13:22:55.193Z,,,,,2053.5000001545995,response,,,,,,flower,yes,,,,,,,,,1492352.7999999933,,1492351.5999999363,,1490298.0999997817,,picture naming
,(Optional) naming,html.Form,7_6_1,2018-06-05T13:22:55.196Z,,,,,0,skipped,,,,,,flower,,,,,,,,,,1492356.7999999505,,1492354.3000000063,,1492354.3000000063,,picture naming
,Naming trial,flow.Sequence,7_6,2018-06-05T13:22:55.197Z,,,,,2058.5999998729676,completion,,,,,,flower,,,,,,,,,,1492356.9999998435,,1492356.5999998245,,1490297.9999999516,,picture naming
,Picture Naming,flow.Loop,7,2018-06-05T13:22:55.197Z,,,,,37119.399999966845,completion,,,,,,,,,,,,,,,,1492357.1999999695,,1492356.9999998435,,1455237.5999998767,,
,Get-set-go,html.Screen,8_0_0,2018-06-05T13:23:18.662Z,,,,,23462.900000158697,response,,,,,,,continue,,"[""flag"",""flower""]",2,,,,,,1515821.3999997824,,1515820.5999999773,,1492357.6999998186,,point and name
,Learning phase,flow.Loop,8_0_1,2018-06-05T13:23:21.674Z,,,,,3012.1999999973923,completion,,,,,,,,,"[""flag"",""flower""]",2,,,,,,1518833.8999999687,,1518833.7999999058,,1515821.5999999084,,point and name
,Visor Instruction for delay,canvas.Screen,8_0_2,2018-06-05T13:23:36.688Z,,,,,15011.400000192225,timeout,,,,,,,,,"[""flag"",""flower""]",2,,,,,,1533847.4999999162,,1533846.900000004,,1518835.4999998119,,point and name
,Recall,html.Screen,8_0_3,2018-06-05T13:23:42.512Z,,,true,"[true,true]",5822.999999858439,done,,"[""apple"",""pencil"",""moon"",""flower"",""comb"",""owl"",""flag""]",,,,,,"[""flag"",""flower""]","[""flag"",""flower""]",2,,,,,,1539671.7999998946,,1539671.2999998126,,1533848.2999999542,,point and name
,Trial sequence for Point and Name,flow.Sequence,8_0,2018-06-05T13:23:42.513Z,,,,,47314.29999996908,completion,,,,,,,,,"[""flag"",""flower""]",2,,,,,,1539673.2999999076,,1539671.8999999575,,1492357.5999999885,,point and name
,Get-set-go,html.Screen,8_1_0,2018-06-05T13:23:45.183Z,,,,,2668.3000000193715,response,,,,,,,continue,,"[""pencil"",""moon""]",2,,,,,,1542342.799999984,,1542341.899999883,,1539673.5999998637,,point and name
,Learning phase,flow.Loop,8_1_1,2018-06-05T13:23:48.197Z,,,,,3014.500000048429,completion,,,,,,,,,"[""pencil"",""moon""]",2,,,,,,1545357.7999998815,,1545357.4999999255,,1542342.999999877,,point and name
,Visor Instruction for delay,canvas.Screen,8_1_2,2018-06-05T13:24:03.217Z,,,,,15016.000000061467,timeout,,,,,,,,,"[""pencil"",""moon""]",2,,,,,,1560376.6999999061,,1560375.299999956,,1545359.2999998946,,point and name
,Recall,html.Screen,8_1_3,2018-06-05T13:24:07.807Z,,,true,"[true,true]",4589.19999981299,done,,"[""flower"",""flag"",""pencil"",""comb"",""owl"",""moon"",""apple""]",,,,,,"[""pencil"",""moon""]","[""pencil"",""moon""]",2,,,,,,1564967.100000009,,1564966.79999982,,1560377.600000007,,point and name
,Trial sequence for Point and Name,flow.Sequence,8_1,2018-06-05T13:24:07.807Z,,,,,25293.800000101328,completion,,,,,,,,,"[""pencil"",""moon""]",2,,,,,,1564967.399999965,,1564967.299999902,,1539673.4999998007,,point and name
,Get-set-go,html.Screen,8_2_0,2018-06-05T13:26:12.707Z,,,,,124898.30000000075,response,,,,,,,continue,,"[""pencil"",""moon"",""flower""]",3,,,,,,1689866.7999999598,,1689865.9999999218,,1564967.699999921,,point and name
,Learning phase,flow.Loop,8_2_1,2018-06-05T13:26:17.243Z,,,,,4535.6999998912215,completion,,,,,,,,,"[""pencil"",""moon"",""flower""]",3,,,,,,1694403.299999889,,1694402.799999807,,1689867.0999999158,,point and name
,Visor Instruction for delay,canvas.Screen,8_2_2,2018-06-05T13:26:32.259Z,,,,,15011.400000192225,timeout,,,,,,,,,"[""pencil"",""moon"",""flower""]",3,,,,,,1709418.2999997865,,1709417.4999999814,,1694406.0999997891,,point and name
,Recall,html.Screen,8_2_3,2018-06-05T13:26:37.631Z,,,true,"[true,true,true]",5371.599999954924,done,,"[""pencil"",""apple"",""comb"",""flag"",""moon"",""owl"",""flower""]",,,,,,"[""pencil"",""moon"",""flower""]","[""pencil"",""moon"",""flower""]",3,,,,,,1714791.2999999244,,1714790.5999999493,,1709418.9999999944,,point and name
,Trial sequence for Point and Name,flow.Sequence,8_2,2018-06-05T13:26:37.631Z,,,,,149823.8999999594,completion,,,,,,,,,"[""pencil"",""moon"",""flower""]",3,,,,,,1714791.8000000063,,1714791.5999998804,,1564967.699999921,,point and name
,Get-set-go,html.Screen,8_3_0,2018-06-05T13:26:42.408Z,,,,,4772.39999989979,response,,,,,,,continue,,"[""flower"",""comb"",""apple""]",3,,,,,,1719567.5999999512,,1719564.7999998182,,1714792.3999999184,,point and name
,Learning phase,flow.Loop,8_3_1,2018-06-05T13:26:46.934Z,,,,,4526.200000196695,completion,,,,,,,,,"[""flower"",""comb"",""apple""]",3,,,,,,1724094.7999998461,,1724094.299999997,,1719568.0999998003,,point and name
,Visor Instruction for delay,canvas.Screen,8_3_2,2018-06-05T13:27:01.952Z,,,,,15013.40000005439,timeout,,,,,,,,,"[""flower"",""comb"",""apple""]",3,,,,,,1739111.2999999896,,1739110.6999998447,,1724097.2999997903,,point and name
,Recall,html.Screen,8_3_3,2018-06-05T13:27:06.541Z,,,true,"[true,true,true]",4585.399999981746,done,,"[""moon"",""flower"",""owl"",""apple"",""comb"",""flag"",""pencil""]",,,,,,"[""flower"",""comb"",""apple""]","[""flower"",""comb"",""apple""]",3,,,,,,1743701.2999998406,,1743700.3999999724,,1739114.9999999907,,point and name
,Trial sequence for Point and Name,flow.Sequence,8_3,2018-06-05T13:27:06.542Z,,,,,28909.600000130013,completion,,,,,,,,,"[""flower"",""comb"",""apple""]",3,,,,,,1743702.1999999415,,1743701.7999999225,,1714792.1999997925,,point and name
,Get-set-go,html.Screen,8_4_0,2018-06-05T13:27:11.675Z,,,,,5129.600000102073,response,,,,,,,continue,,"[""flag"",""pencil"",""moon"",""comb""]",4,,,,,,1748834.7999998368,,1748832.6999999117,,1743703.0999998096,,point and name
,Learning phase,flow.Loop,8_4_1,2018-06-05T13:27:17.705Z,,,,,6029.199999989942,completion,,,,,,,,,"[""flag"",""pencil"",""moon"",""comb""]",4,,,,,,1754864.7999998648,,1754864.1999999527,,1748834.9999999627,,point and name
,Visor Instruction for delay,canvas.Screen,8_4_2,2018-06-05T13:27:32.721Z,,,,,15012.30000006035,timeout,,,,,,,,,"[""flag"",""pencil"",""moon"",""comb""]",4,,,,,,1769880.1999997813,,1769879.2999999132,,1754866.9999998529,,point and name
,Recall,html.Screen,8_4_3,2018-06-05T13:27:37.070Z,,,true,"[true,true,true,true]",4348.299999954179,done,,"[""comb"",""flower"",""apple"",""pencil"",""moon"",""owl"",""flag""]",,,,,,"[""flag"",""pencil"",""moon"",""comb""]","[""flag"",""pencil"",""moon"",""comb""]",4,,,,,,1774229.8999999184,,1774229.4999998994,,1769881.1999999452,,point and name
,Trial sequence for Point and Name,flow.Sequence,8_4,2018-06-05T13:27:37.070Z,,,,,30527.40000002086,completion,,,,,,,,,"[""flag"",""pencil"",""moon"",""comb""]",4,,,,,,1774230.4000000004,,1774230.1999998745,,1743702.7999998536,,point and name
,Get-set-go,html.Screen,8_5_0,2018-06-05T13:27:39.202Z,,,,,2128.3000002149493,response,,,,,,,continue,,"[""flag"",""flower"",""moon"",""pencil""]",4,,,,,,1776362.2999999207,,1776359.1000000015,,1774230.7999997865,,point and name
,Learning phase,flow.Loop,8_5_1,2018-06-05T13:27:45.244Z,,,,,6039.600000018254,completion,,,,,,,,,"[""flag"",""flower"",""moon"",""pencil""]",4,,,,,,1782402.999999933,,1782402.499999851,,1776362.8999998327,,point and name
,Visor Instruction for delay,canvas.Screen,8_5_2,2018-06-05T13:28:00.258Z,,,,,15011.699999915436,timeout,,,,,,,,,"[""flag"",""flower"",""moon"",""pencil""]",4,,,,,,1797417.9000000004,,1797416.9999998994,,1782405.299999984,,point and name
,Recall,html.Screen,8_5_3,2018-06-05T13:28:05.857Z,,,true,"[true,true,true,true]",5597.499999916181,done,,"[""pencil"",""flag"",""flower"",""comb"",""moon"",""owl"",""apple""]",,,,,,"[""flag"",""flower"",""moon"",""pencil""]","[""flag"",""flower"",""moon"",""pencil""]",4,,,,,,1803017.7999997977,,1803017.0999998227,,1797419.5999999065,,point and name
,Trial sequence for Point and Name,flow.Sequence,8_5,2018-06-05T13:28:05.859Z,,,,,28787.4999998603,completion,,,,,,,,,"[""flag"",""flower"",""moon"",""pencil""]",4,,,,,,1803018.6999998987,,1803018.1999998167,,1774230.6999999564,,point and name
,Get-set-go,html.Screen,8_6_0,2018-06-05T13:28:08.722Z,,,,,2857.30000003241,response,,,,,,,continue,,"[""owl"",""flower"",""comb"",""pencil"",""moon""]",5,,,,,,1805881.3999998383,,1805876.799999969,,1803019.4999999367,,point and name
,Learning phase,flow.Loop,8_6_1,2018-06-05T13:28:16.275Z,,,,,7551.29999993369,completion,,,,,,,,,"[""owl"",""flower"",""comb"",""pencil"",""moon""]",5,,,,,,1813434.199999785,,1813433.599999873,,1805882.2999999393,,point and name
,Visor Instruction for delay,canvas.Screen,8_6_2,2018-06-05T13:28:31.289Z,,,,,15010.899999877438,timeout,,,,,,,,,"[""owl"",""flower"",""comb"",""pencil"",""moon""]",5,,,,,,1828448.4999999404,,1828447.5999998394,,1813436.699999962,,point and name
,Recall,html.Screen,8_6_3,2018-06-05T13:28:38.944Z,,,true,"[true,true,true,true,true]",7654.100000159815,done,,"[""flag"",""pencil"",""comb"",""flower"",""moon"",""owl"",""apple""]",,,,,,"[""owl"",""flower"",""comb"",""pencil"",""moon""]","[""owl"",""flower"",""comb"",""pencil"",""moon""]",5,,,,,,1836103.8999999873,,1836103.2000000123,,1828449.0999998525,,point and name
,Trial sequence for Point and Name,flow.Sequence,8_6,2018-06-05T13:28:38.945Z,,,,,33085.100000025705,completion,,,,,,,,,"[""owl"",""flower"",""comb"",""pencil"",""moon""]",5,,,,,,1836104.6999997925,,1836104.3000000063,,1803019.1999999806,,point and name
,Get-set-go,html.Screen,8_7_0,2018-06-05T13:28:41.954Z,,,,,3005.3999999072403,response,,,,,,,continue,,"[""comb"",""pencil"",""flag"",""apple"",""moon""]",5,,,,,,1839114.7999998648,,1839110.7999999076,,1836105.4000000004,,point and name
,Learning phase,flow.Loop,8_7_1,2018-06-05T13:28:49.492Z,,,,,7535.600000061095,completion,,,,,,,,,"[""comb"",""pencil"",""flag"",""apple"",""moon""]",5,,,,,,1846651.699999813,,1846651.099999901,,1839115.4999998398,,point and name
,Visor Instruction for delay,canvas.Screen,8_7_2,2018-06-05T13:29:04.505Z,,,,,15010.09999983944,timeout,,,,,,,,,"[""comb"",""pencil"",""flag"",""apple"",""moon""]",5,,,,,,1861665.5999999493,,1861664.2999998294,,1846654.19999999,,point and name
,Recall,html.Screen,8_7_3,2018-06-05T13:29:13.954Z,,,true,"[true,true,true,true,true]",9447.500000009313,done,,"[""apple"",""pencil"",""flower"",""owl"",""comb"",""flag"",""moon""]",,,,,,"[""comb"",""pencil"",""flag"",""apple"",""moon""]","[""comb"",""pencil"",""flag"",""apple"",""moon""]",5,,,,,,1871114.5999999717,,1871113.9999998268,,1861666.4999998175,,point and name
,Trial sequence for Point and Name,flow.Sequence,8_7,2018-06-05T13:29:13.956Z,,,,,35009.7999998834,completion,,,,,,,,,"[""comb"",""pencil"",""flag"",""apple"",""moon""]",5,,,,,,1871115.6999999657,,1871115.0999998208,,1836105.2999999374,,point and name
,Point and Name task,flow.Loop,8,2018-06-05T13:29:13.956Z,,,,,378758.3999999333,completion,,,,,,,,,,,,,,,,1871116.3999999408,,1871115.8999998588,,1492357.4999999255,,
,Goodbye Screen,canvas.Screen,9,2018-06-05T13:29:15.952Z,,,,,1991.2000000476837,response,,,,,,,exit screen,,,,,,,,,1873111.9999999646,,1873110.4999999516,,1871119.299999904,,
,root,flow.Sequence,,2018-06-05T13:29:15.954Z,,,,,1872616.5999998339,completion,,,,,,,,,,,,,,,,1873113.8999999966,,1873112.4999998137,,495.89999997988343,,