participant_id,sender,sender_type,sender_id,timestamp,meta,,duration,ended_on,lab_name,options,participant_age,participant_gender,participant_group,picture,response,responses,span,span_length,strategy_cumulative,strategy_no_choice,strategy_none,strategy_rehearse,strategy_response,time_commit,time_duration,time_end,time_render,time_run,time_show,time_switch,timing,trial type,url
555,Participant ID,html.Form,0,2018-11-24T00:14:26.098Z,"{""labjs_version"":""2018.0.3"",""labjs_build"":{""flavor"":""production"",""commit"":""ef20833e19480399c902f802c41a5bd8e5b924c3""},""location"":""https://labjs.felixhenninger.com/api/labjs_preview/index.html"",""userAgent"":""Mozilla/5.0 (Windows NT 6.1; Win64; x64) AppleWebKit/537.36 (KHTML, like Gecko) Chrome/70.0.3538.102 Safari/537.36"",""platform"":""Win32"",""language"":""en-US"",""locale"":""en-US"",""timeZone"":""America/Chicago"",""timezoneOffset"":360,""screen_width"":1920,""screen_height"":1080,""scroll_width"":1193,""scroll_height"":1010,""window_innerWidth"":1209,""window_innerHeight"":1034,""devicePixelRatio"":1}",,8158.143999931082,form submission,ee,,4,2,1,,,,,,,,,,,8751.999999862164,,8750.999999931082,542.858,577.0000000484288,592.856,8842.526,,,{}
,Welcome,html.Screen,1,2018-11-24T00:14:28.152Z,,,1963.4739998658897,response,,,,,,,continue,,,,,,,,,10805.99999986589,,10805.99999986589,8759.196,8751.999999862164,8842.526,10825.78,,,
,Get-set-go,html.Screen,2_0_0,2018-11-24T00:14:30.033Z,,,1861.219999918043,response,,,,,,,continue,,"[""flower"",""owl""]",2,,,,,,12686.999999918044,,12686.999999918044,10792.448,10805.99999986589,10825.78,12742.37,,practice,
,Learning phase,flow.Loop,2_0_1,2018-11-24T00:14:34.103Z,,,3999.8399999999983,completion,,"[""pencil"",""moon"",""owl"",""flower"",""comb"",""apple"",""flag""]",,,,,,,"[""flower"",""owl""]",2,,,,,,16756.999999983236,,16742.21,12675.706,12702.000000048429,12742.37,16792.208,,practice,
,Blank Screen,html.Screen,2_0_2,2018-11-24T00:14:35.136Z,,,1016.6260000000002,timeout,,,,,,,,,"[""flower"",""owl""]",2,,,,,,17790.000000037253,,17775.502,16775.542,16756.999999983236,16792.208,17808.834,,practice,
,Recall,html.Screen,2_0_3,2018-11-24T00:14:37.550Z,,,2395.165999910594,done,,"[""owl"",""apple"",""flag"",""pencil"",""comb"",""flower"",""moon""]",,,,,,"[""flower"",""moon""]","[""flower"",""owl""]",2,,,,,,20203.999999910593,,20203.999999910593,17775.502,17790.999999968335,17808.834,20242.07,,practice,
,Trial sequence for Recall,flow.Sequence,2_0,2018-11-24T00:14:37.550Z,,,9378.219999910592,completion,,,,,,,,,"[""flower"",""owl""]",2,,,,,,20203.999999910593,,20203.999999910593,10792.448,10805.99999986589,10825.78,20242.07,,practice,
,Get-set-go,html.Screen,2_1_0,2018-11-24T00:14:38.668Z,,,1079.9299999273571,response,,,,,,,continue,,"[""comb"",""owl"",""flag"",""flower""]",4,,,,,,21321.999999927357,,21321.999999927357,20192.072,20203.999999910593,20242.07,21342.026,,practice,
,Learning phase,flow.Loop,2_1_1,2018-11-24T00:14:46.735Z,,,8033.011999999999,completion,,"[""apple"",""flower"",""moon"",""pencil"",""owl"",""comb"",""flag""]",,,,,,,"[""comb"",""owl"",""flag"",""flower""]",4,,,,,,29388.999999966472,,29375.038,21308.694,21321.999999927357,21342.026,29425.036,,practice,
,Blank Screen,html.Screen,2_1_2,2018-11-24T00:14:47.768Z,,,1016.6260000000002,timeout,,,,,,,,,"[""comb"",""owl"",""flag"",""flower""]",4,,,,,,30422.00000002049,,30408.33,29408.37,29389.999999897555,29425.036,30441.662,,practice,
,Recall,html.Screen,2_1_3,2018-11-24T00:14:54.744Z,,,6956.338000044703,done,,"[""flower"",""apple"",""comb"",""pencil"",""moon"",""owl"",""flag""]",,,,,,"[""comb"",""owl"",""flag"",""flower""]","[""comb"",""owl"",""flag"",""flower""]",4,,,,,,37398.0000000447,,37398.0000000447,30408.33,30422.99999995157,30441.662,37441.382,,practice,
,Trial sequence for Recall,flow.Sequence,2_1,2018-11-24T00:14:54.744Z,,,17155.930000044704,completion,,,,,,,,,"[""comb"",""owl"",""flag"",""flower""]",4,,,,,,37398.0000000447,,37398.0000000447,20192.072,20203.999999910593,20242.07,37441.382,,practice,
,Practice picture span task,flow.Loop,2,2018-11-24T00:14:54.744Z,,,26572.220000044705,completion,,,,,,,,,,,,,,,,37398.0000000447,,37398.0000000447,10792.448,10805.99999986589,10825.78,37441.382,,,
,Ready to begin?,html.Screen,3,2018-11-24T00:14:57.300Z,,,2512.6179999105952,response,,,,,,,continue,,,,,,,,,39953.99999991059,,39953.99999991059,37391.384,37398.0000000447,37441.382,39991.28,,,
,Visor Practice,html.Screen,4,2018-11-24T00:15:10.079Z,,,12725.719999945984,response,,,,,,,continue,,,,,,,,,52733.00000000745,,52716.99999994598,39941.282,39953.99999991059,39991.28,52757.436,,,
,Get-set-go,html.Screen,5_0_0_0,2018-11-24T00:15:12.200Z,,,2096.56400005029,response,,,,,,,continue,,"[""flower"",""apple""]",2,,,,,,54854.00000005029,0,54854.00000005029,52724.104,52733.00000000745,52757.436,54874.018,immediate,experimental,
,Learning phase,flow.Loop,5_0_0_1,2018-11-24T00:15:16.233Z,,,3999.840000000004,completion,,"[""flower"",""owl"",""pencil"",""comb"",""flag"",""moon"",""apple""]",,,,,,,"[""flower"",""apple""]",2,,,,,,58886.99999987148,0,58873.858,54840.686,54854.00000005029,54874.018,58940.522,immediate,experimental,
,Visor Instruction for delay,canvas.Screen,5_0_0_2,2018-11-24T00:15:16.235Z,,,NaN,skipped,,,,,,,,,"[""flower"",""apple""]",2,,,,,,58888.99999996647,0,58873.858,,58888.00000003539,,58940.522,immediate,experimental,
,Recall,html.Screen,5_0_0_3,2018-11-24T00:15:20.815Z,,,4528.478000040981,done,,"[""moon"",""flag"",""pencil"",""comb"",""owl"",""apple"",""flower""]",,,,,,[],"[""flower"",""apple""]",2,,,,,,63469.00000004098,0,63469.00000004098,58923.856,58888.99999996647,58940.522,63490.34,immediate,experimental,
,Trial sequence for Recall,flow.Sequence,5_0_0,2018-11-24T00:15:20.815Z,,,10711.564000040977,completion,,,,,,,,,"[""flower"",""apple""]",2,,,,,,63469.00000004098,0,63469.00000004098,52724.104,52733.00000000745,52757.436,63490.34,immediate,experimental,
,Get-set-go,html.Screen,5_0_1_0,2018-11-24T00:15:22.648Z,,,1811.6599999087339,response,,,,,,,continue,,"[""flag"",""owl""]",2,,,,,,65301.99999990873,0,65301.99999990873,63457.008,63469.00000004098,63490.34,65340.266,immediate,experimental,
,Learning phase,flow.Loop,5_0_1_1,2018-11-24T00:15:26.699Z,,,3999.8399999999965,completion,,"[""owl"",""comb"",""flower"",""pencil"",""moon"",""apple"",""flag""]",,,,,,,"[""flag"",""owl""]",2,,,,,,69352.99999988638,0,69340.106,65290.268,65301.99999990873,65340.266,69373.438,immediate,experimental,
,Visor Instruction for delay,canvas.Screen,5_0_1_2,2018-11-24T00:15:26.699Z,,,NaN,skipped,,,,,,,,,"[""flag"",""owl""]",2,,,,,,69352.99999988638,0,69340.106,,69352.99999988638,,69373.438,immediate,experimental,
,Recall,html.Screen,5_0_1_3,2018-11-24T00:15:34.365Z,,,7645.561999854719,done,,"[""pencil"",""moon"",""owl"",""flower"",""flag"",""comb"",""apple""]",,,,,,[],"[""flag"",""owl""]",2,,,,,,77018.99999985471,0,77018.99999985471,69356.772,69352.99999988638,69373.438,77039.798,immediate,experimental,
,Trial sequence for Recall,flow.Sequence,5_0_1,2018-11-24T00:15:34.365Z,,,13528.659999854717,completion,,,,,,,,,"[""flag"",""owl""]",2,,,,,,77018.99999985471,0,77018.99999985471,63457.008,63469.00000004098,63490.34,77039.798,immediate,experimental,
,Get-set-go,html.Screen,5_0_2_0,2018-11-24T00:15:35.449Z,,,1063.2019998863834,response,,,,,,,continue,,"[""moon"",""flag"",""flower""]",3,,,,,,78102.99999988638,0,78102.99999988638,77006.466,77018.99999985471,77039.798,78123.088,immediate,experimental,
,Learning phase,flow.Loop,5_0_2_1,2018-11-24T00:15:41.499Z,,,6016.425999999992,completion,,"[""apple"",""flower"",""moon"",""owl"",""pencil"",""comb"",""flag""]",,,,,,,"[""moon"",""flag"",""flower""]",3,,,,,,84152.99999993294,0,84139.514,78089.756,78102.99999988638,78123.088,84189.512,immediate,experimental,
,Visor Instruction for delay,canvas.Screen,5_0_2_2,2018-11-24T00:15:41.500Z,,,NaN,skipped,,,,,,,,,"[""moon"",""flag"",""flower""]",3,,,,,,84153.99999986403,0,84139.514,,84153.99999986403,,84189.512,immediate,experimental,
,Recall,html.Screen,5_0_2_3,2018-11-24T00:15:46.599Z,,,5048.487999895689,done,,"[""comb"",""flower"",""apple"",""moon"",""pencil"",""flag"",""owl""]",,,,,,"[""moon"",""flag"",""flower""]","[""moon"",""flag"",""flower""]",3,,,,,,89253.00000002608,0,89237.99999989569,84172.846,84153.99999986403,84189.512,89272.642,immediate,experimental,
,Trial sequence for Recall,flow.Sequence,5_0_2,2018-11-24T00:15:46.599Z,,,12198.201999895697,completion,,,,,,,,,"[""moon"",""flag"",""flower""]",3,,,,,,89253.00000002608,0,89237.99999989569,77006.466,77018.99999985471,77039.798,89272.642,immediate,experimental,
,Get-set-go,html.Screen,5_0_3_0,2018-11-24T00:15:47.531Z,,,912.3580000558723,response,,,,,,,continue,,"[""flower"",""comb"",""pencil""]",3,,,,,,90185.00000005588,0,90185.00000005588,89239.31,89253.00000002608,89272.642,90205.938,immediate,experimental,
,Learning phase,flow.Loop,5_0_3_1,2018-11-24T00:15:53.582Z,,,6016.426000000007,completion,,"[""comb"",""moon"",""pencil"",""flag"",""owl"",""flower"",""apple""]",,,,,,,"[""flower"",""comb"",""pencil""]",3,,,,,,96236.00000003353,0,96222.364,90172.606,90185.00000005588,90205.938,96272.362,immediate,experimental,
,Visor Instruction for delay,canvas.Screen,5_0_3_2,2018-11-24T00:15:53.583Z,,,NaN,skipped,,,,,,,,,"[""flower"",""comb"",""pencil""]",3,,,,,,96236.99999996461,0,96222.364,,96236.99999996461,,96272.362,immediate,experimental,
,Recall,html.Screen,5_0_3_3,2018-11-24T00:15:59.064Z,,,5445.637999877072,done,,"[""owl"",""comb"",""flag"",""moon"",""apple"",""pencil"",""flower""]",,,,,,"[""flower"",""comb"",""pencil""]","[""flower"",""comb"",""pencil""]",3,,,,,,101717.99999987707,0,101717.99999987707,96255.696,96236.99999996461,96272.362,101722.144,immediate,experimental,
,Trial sequence for Recall,flow.Sequence,5_0_3,2018-11-24T00:15:59.064Z,,,12445.357999877058,completion,,,,,,,,,"[""flower"",""comb"",""pencil""]",3,,,,,,101717.99999987707,0,101717.99999987707,89239.31,89253.00000002608,89272.642,101722.144,immediate,experimental,
,Get-set-go,html.Screen,5_0_4_0,2018-11-24T00:16:00.197Z,,,1127.8559998603014,response,,,,,,,continue,,"[""moon"",""owl"",""apple"",""comb""]",4,,,,,,102849.9999998603,0,102849.9999998603,101705.478,101717.99999987707,101722.144,102888.764,immediate,experimental,
,Learning phase,flow.Loop,5_0_4_1,2018-11-24T00:16:08.281Z,,,8033.012000000002,completion,,"[""flag"",""moon"",""flower"",""pencil"",""apple"",""owl"",""comb""]",,,,,,,"[""moon"",""owl"",""apple"",""comb""]",4,,,,,,110935.00000005588,0,110921.776,102838.766,102849.9999998603,102888.764,110988.44,immediate,experimental,
,Visor Instruction for delay,canvas.Screen,5_0_4_2,2018-11-24T00:16:08.282Z,,,NaN,skipped,,,,,,,,,"[""moon"",""owl"",""apple"",""comb""]",4,,,,,,110935.99999998696,0,110921.776,,110935.00000005588,,110988.44,immediate,experimental,
,Recall,html.Screen,5_0_4_3,2018-11-24T00:16:15.144Z,,,6794.560000054014,done,,"[""moon"",""owl"",""comb"",""flag"",""pencil"",""flower"",""apple""]",,,,,,"[""moon"",""owl"",""apple"",""comb""]","[""moon"",""owl"",""apple"",""comb""]",4,,,,,,117797.99999995157,0,117783.00000005402,110971.774,110935.99999998696,110988.44,117821.5,immediate,experimental,
,Trial sequence for Recall,flow.Sequence,5_0_4,2018-11-24T00:16:15.144Z,,,16060.856000054016,completion,,,,,,,,,"[""moon"",""owl"",""apple"",""comb""]",4,,,,,,117797.99999995157,0,117783.00000005402,101705.478,101717.99999987707,101722.144,117821.5,immediate,experimental,
,Get-set-go,html.Screen,5_0_5_0,2018-11-24T00:16:16.596Z,,,1428.5,response,,,,,,,continue,,"[""comb"",""owl"",""pencil"",""moon""]",4,,,,,,119250,0,119250,117771.502,117797.99999995157,117821.5,119271.442,immediate,experimental,
,Learning phase,flow.Loop,5_0_5_1,2018-11-24T00:16:24.681Z,,,8049.678,completion,,"[""owl"",""apple"",""flag"",""moon"",""flower"",""pencil"",""comb""]",,,,,,,"[""comb"",""owl"",""pencil"",""moon""]",4,,,,,,127334.99999996275,0,127321.12,119238.11,119250,119271.442,127387.784,immediate,experimental,
,Visor Instruction for delay,canvas.Screen,5_0_5_2,2018-11-24T00:16:24.682Z,,,NaN,skipped,,,,,,,,,"[""comb"",""owl"",""pencil"",""moon""]",4,,,,,,127335.99999989383,0,127321.12,,127335.99999989383,,127387.784,immediate,experimental,
,Recall,html.Screen,5_0_5_3,2018-11-24T00:16:31.564Z,,,6830.215999877066,done,,"[""flower"",""flag"",""apple"",""moon"",""pencil"",""owl"",""comb""]",,,,,,"[""comb"",""owl"",""pencil"",""moon""]","[""comb"",""owl"",""pencil"",""moon""]",4,,,,,,134217.99999987707,0,134217.99999987707,127371.118,127335.99999989383,127387.784,134237.51,immediate,experimental,
,Trial sequence for Recall,flow.Sequence,5_0_5,2018-11-24T00:16:31.564Z,,,16396.499999877065,completion,,,,,,,,,"[""comb"",""owl"",""pencil"",""moon""]",4,,,,,,134217.99999987707,0,134217.99999987707,117771.502,117797.99999995157,117821.5,134237.51,immediate,experimental,
,Get-set-go,html.Screen,5_0_6_0,2018-11-24T00:16:32.631Z,,,1032.4900000186171,response,,,,,,,continue,,"[""flower"",""pencil"",""owl"",""apple"",""comb""]",5,,,,,,135270.00000001863,0,135270.00000001863,134204.178,134217.99999987707,134237.51,135320.8,immediate,experimental,
,Learning phase,flow.Loop,5_0_6_1,2018-11-24T00:16:42.762Z,,,10082.930000000022,completion,,"[""moon"",""owl"",""flower"",""flag"",""apple"",""comb"",""pencil""]",,,,,,,"[""flower"",""pencil"",""owl"",""apple"",""comb""]",5,,,,,,145416.99999989942,0,145403.73,135254.136,135285.99999984726,135320.8,145453.728,immediate,experimental,
,Visor Instruction for delay,canvas.Screen,5_0_6_2,2018-11-24T00:16:42.768Z,,,NaN,skipped,,,,,,,,,"[""flower"",""pencil"",""owl"",""apple"",""comb""]",5,,,,,,145422.0000000205,0,145403.73,,145417.9999998305,,145453.728,immediate,experimental,
,Recall,html.Screen,5_0_6_3,2018-11-24T00:16:49.509Z,,,6710.271999873337,done,,"[""flower"",""flag"",""moon"",""pencil"",""owl"",""comb"",""apple""]",,,,,,"[""flower"",""pencil"",""owl"",""apple"",""comb""]","[""flower"",""pencil"",""owl"",""apple"",""comb""]",5,,,,,,152163.99999987334,0,152163.99999987334,145437.062,145422.99999995157,145453.728,152186.792,immediate,experimental,
,Trial sequence for Recall,flow.Sequence,5_0_6,2018-11-24T00:16:49.509Z,,,17926.48999987333,completion,,,,,,,,,"[""flower"",""pencil"",""owl"",""apple"",""comb""]",5,,,,,,152163.99999987334,0,152163.99999987334,134204.178,134217.99999987707,134237.51,152186.792,immediate,experimental,
,Get-set-go,html.Screen,5_0_7_0,2018-11-24T00:16:53.326Z,,,3794.207999912469,response,,,,,,,continue,,"[""owl"",""flag"",""moon"",""apple"",""flower""]",5,,,,,,155980.99999991246,0,155980.99999991246,152153.46,152163.99999987334,152186.792,156003.306,immediate,experimental,
,Learning phase,flow.Loop,5_0_7_1,2018-11-24T00:17:03.412Z,,,10049.597999999998,completion,,"[""flower"",""moon"",""comb"",""owl"",""pencil"",""apple"",""flag""]",,,,,,,"[""owl"",""flag"",""moon"",""apple"",""flower""]",5,,,,,,166065.9999998752,0,166052.904,155969.974,155980.99999991246,156003.306,166119.568,immediate,experimental,
,Visor Instruction for delay,canvas.Screen,5_0_7_2,2018-11-24T00:17:03.412Z,,,NaN,skipped,,,,,,,,,"[""owl"",""flag"",""moon"",""apple"",""flower""]",5,,,,,,166067.00000003912,0,166052.904,,166067.00000003912,,166119.568,immediate,experimental,
,Recall,html.Screen,5_0_7_3,2018-11-24T00:17:10.447Z,,,6966.43199989383,done,,"[""apple"",""moon"",""flag"",""flower"",""pencil"",""comb"",""owl""]",,,,,,"[""owl"",""flag"",""moon"",""apple"",""flower""]","[""owl"",""flag"",""moon"",""apple"",""flower""]",5,,,,,,173101.0000000242,0,173085.99999989383,166102.902,166067.00000003912,166119.568,173119.288,immediate,experimental,
,Trial sequence for Recall,flow.Sequence,5_0_7,2018-11-24T00:17:10.447Z,,,20899.207999893842,completion,,,,,,,,,"[""owl"",""flag"",""moon"",""apple"",""flower""]",5,,,,,,173101.0000000242,0,173085.99999989383,152153.46,152163.99999987334,152186.792,173119.288,immediate,experimental,
,Picture span task,flow.Loop,5_0,2018-11-24T00:17:10.447Z,,,120328.56399989383,completion,,,,,,,,,,,,,,,,173101.0000000242,0,173085.99999989383,52724.104,52733.00000000745,52757.436,173119.288,immediate,,
,Get-set-go,html.Screen,5_1_0_0,2018-11-24T00:17:11.508Z,,,1042.7120000111754,response,,,,,,,continue,,"[""pencil"",""flag""]",2,,,,,,174162.00000001118,15000,174162.00000001118,173085.956,173101.0000000242,173119.288,174202.578,delayed,experimental,
,Learning phase,flow.Loop,5_1_0_1,2018-11-24T00:17:15.562Z,,,3999.8399999999965,completion,,"[""pencil"",""flower"",""moon"",""owl"",""comb"",""flag"",""apple""]",,,,,,,"[""pencil"",""flag""]",2,,,,,,178216.0000000149,15000,178202.418,174152.58,174162.00000001118,174202.578,178302.414,delayed,experimental,
,Visor Instruction for delay,canvas.Screen,5_1_0_2,2018-11-24T00:17:30.644Z,,,15016.06600000002,timeout,,,,,,,,,"[""pencil"",""flag""]",2,,,,,,193298.99999988265,15000,193285.148,178269.082,178216.99999994598,178302.414,193318.48,delayed,experimental,
,Recall,html.Screen,5_1_0_3,2018-11-24T00:17:38.226Z,,,7561.519999888231,done,,"[""moon"",""flag"",""pencil"",""apple"",""comb"",""owl"",""flower""]",,,,,,"[""pencil"",""flag""]","[""pencil"",""flag""]",2,,,,,,200879.99999988824,15000,200879.99999988824,193285.148,193300.00000004657,193318.48,200918.176,delayed,experimental,
,Trial sequence for Recall,flow.Sequence,5_1_0,2018-11-24T00:17:38.226Z,,,27760.71199988824,completion,,,,,,,,,"[""pencil"",""flag""]",2,,,,,,200879.99999988824,15000,200879.99999988824,173085.956,173101.0000000242,173119.288,200918.176,delayed,experimental,
,Get-set-go,html.Screen,5_1_1_0,2018-11-24T00:17:39.512Z,,,1247.8239999683283,response,,,,,,,continue,,"[""moon"",""apple""]",2,,,,,,202165.99999996834,15000,202165.99999996834,200868.178,200895.9999999497,200918.176,202201.458,delayed,experimental,
,Learning phase,flow.Loop,5_1_1_1,2018-11-24T00:17:43.561Z,,,3999.8399999999965,completion,,"[""pencil"",""flag"",""owl"",""comb"",""moon"",""apple"",""flower""]",,,,,,,"[""moon"",""apple""]",2,,,,,,206214.999999851,15000,206201.298,202151.46,202182.0000000298,202201.458,206251.296,delayed,experimental,
,Visor Instruction for delay,canvas.Screen,5_1_1_2,2018-11-24T00:17:58.594Z,,,15032.731999999989,timeout,,,,,,,,,"[""moon"",""apple""]",2,,,,,,221247.999999905,15000,221234.03,206234.63,206216.0000000149,206251.296,221284.028,delayed,experimental,
,Recall,html.Screen,5_1_1_3,2018-11-24T00:18:03.325Z,,,4694.9720000503,done,,"[""owl"",""pencil"",""flag"",""moon"",""apple"",""flower"",""comb""]",,,,,,"[""moon"",""apple""]","[""moon"",""apple""]",2,,,,,,225979.0000000503,15000,225979.0000000503,221234.03,221247.999999905,221284.028,226000.506,delayed,experimental,
,Trial sequence for Recall,flow.Sequence,5_1_1,2018-11-24T00:18:03.325Z,,,25060.824000050285,completion,,,,,,,,,"[""moon"",""apple""]",2,,,,,,225979.0000000503,15000,225979.0000000503,200868.178,200879.99999988824,200918.176,226000.506,delayed,experimental,
,Get-set-go,html.Screen,5_1_2_0,2018-11-24T00:18:04.876Z,,,1529.4940000279457,response,,,,,,,continue,,"[""owl"",""pencil"",""flower""]",3,,,,,,227530.00000002794,15000,227530.00000002794,225967.174,225979.0000000503,226000.506,227567.11,delayed,experimental,
,Learning phase,flow.Loop,5_1_2_1,2018-11-24T00:18:10.943Z,,,6016.426000000007,completion,,"[""pencil"",""owl"",""flag"",""moon"",""flower"",""apple"",""comb""]",,,,,,,"[""owl"",""pencil"",""flower""]",3,,,,,,233596.99999983422,15000,233583.536,227517.112,227530.00000002794,227567.11,233666.866,delayed,experimental,
,Visor Instruction for delay,canvas.Screen,5_1_2_2,2018-11-24T00:18:26.009Z,,,15032.731999999989,timeout,,,,,,,,,"[""owl"",""pencil"",""flower""]",3,,,,,,248662.99999994226,15000,248649.6,233633.534,233601.9999999553,233666.866,248699.598,delayed,experimental,
,Recall,html.Screen,5_1_2_3,2018-11-24T00:18:31.324Z,,,5278.4019998863805,done,,"[""flower"",""owl"",""apple"",""pencil"",""comb"",""flag"",""moon""]",,,,,,"[""owl"",""pencil"",""flower""]","[""owl"",""pencil"",""flower""]",3,,,,,,253977.99999988638,15000,253977.99999988638,248649.6,248663.99999987334,248699.598,253999.386,delayed,experimental,
,Trial sequence for Recall,flow.Sequence,5_1_2,2018-11-24T00:18:31.324Z,,,27977.493999886385,completion,,,,,,,,,"[""owl"",""pencil"",""flower""]",3,,,,,,253977.99999988638,15000,253977.99999988638,225967.174,225979.0000000503,226000.506,253999.386,delayed,experimental,
,Get-set-go,html.Screen,5_1_3_0,2018-11-24T00:18:33.490Z,,,2144.613999854715,response,,,,,,,continue,,"[""apple"",""flower"",""moon""]",3,,,,,,256143.9999998547,15000,256143.9999998547,253966.054,253977.99999988638,253999.386,256199.298,delayed,experimental,
,Learning phase,flow.Loop,5_1_3_1,2018-11-24T00:18:39.574Z,,,6016.425999999978,completion,,"[""flower"",""moon"",""comb"",""flag"",""pencil"",""owl"",""apple""]",,,,,,,"[""apple"",""flower"",""moon""]",3,,,,,,262229.0000000503,15000,262215.724,256132.634,256143.9999998547,256199.298,262265.722,delayed,experimental,
,Visor Instruction for delay,canvas.Screen,5_1_3_2,2018-11-24T00:18:54.608Z,,,15016.065999999992,timeout,,,,,,,,,"[""apple"",""flower"",""moon""]",3,,,,,,277261.9999998715,15000,277248.456,262249.056,262229.9999999814,262265.722,277281.788,delayed,experimental,
,Recall,html.Screen,5_1_3_3,2018-11-24T00:19:00.757Z,,,6130.212000011175,done,,"[""flower"",""flag"",""owl"",""comb"",""apple"",""moon"",""pencil""]",,,,,,"[""apple"",""flower"",""moon""]","[""apple"",""flower"",""moon""]",3,,,,,,283412.0000000112,15000,283412.0000000112,277248.456,277261.9999998715,277281.788,283464.874,delayed,experimental,
,Trial sequence for Recall,flow.Sequence,5_1_3,2018-11-24T00:19:00.757Z,,,29412.614000011177,completion,,,,,,,,,"[""apple"",""flower"",""moon""]",3,,,,,,283412.0000000112,15000,283412.0000000112,253966.054,253977.99999988638,253999.386,283464.874,delayed,experimental,
,Get-set-go,html.Screen,5_1_4_0,2018-11-24T00:19:02.321Z,,,1511.1260000242037,response,,,,,,,continue,,"[""pencil"",""moon"",""owl"",""flag""]",4,,,,,,284976.0000000242,15000,284976.0000000242,283398.21,283412.0000000112,283464.874,285014.812,delayed,experimental,
,Learning phase,flow.Loop,5_1_4_1,2018-11-24T00:19:10.407Z,,,8033.012000000046,completion,,"[""moon"",""pencil"",""comb"",""apple"",""owl"",""flower"",""flag""]",,,,,,,"[""pencil"",""moon"",""owl"",""flag""]",4,,,,,,293061.99999991804,15000,293047.824,284964.814,284976.0000000242,285014.812,293097.822,delayed,experimental,
,Visor Instruction for delay,canvas.Screen,5_1_4_2,2018-11-24T00:19:25.441Z,,,15049.397999999986,timeout,,,,,,,,,"[""pencil"",""moon"",""owl"",""flag""]",4,,,,,,308095.99999990314,15000,308080.556,293081.156,293061.99999991804,293097.822,308147.22,delayed,experimental,
,Recall,html.Screen,5_1_4_3,2018-11-24T00:19:32.237Z,,,6744.779999992577,done,,"[""apple"",""flag"",""flower"",""moon"",""comb"",""owl"",""pencil""]",,,,,,"[""pencil"",""moon"",""owl"",""comb""]","[""pencil"",""moon"",""owl"",""flag""]",4,,,,,,314891.99999999255,15000,314891.99999999255,308080.556,308095.99999990314,308147.22,314913.616,delayed,experimental,
,Trial sequence for Recall,flow.Sequence,5_1_4,2018-11-24T00:19:32.237Z,,,31427.12599999254,completion,,,,,,,,,"[""pencil"",""moon"",""owl"",""flag""]",4,,,,,,314891.99999999255,15000,314891.99999999255,283398.21,283412.0000000112,283464.874,314913.616,delayed,experimental,
,Get-set-go,html.Screen,5_1_5_0,2018-11-24T00:19:36.970Z,,,4710.383999836107,response,,,,,,,continue,,"[""pencil"",""apple"",""owl"",""flower""]",4,,,,,,319623.9999998361,15000,319623.9999998361,314880.284,314891.99999999255,314913.616,319646.76,delayed,experimental,
,Learning phase,flow.Loop,5_1_5_1,2018-11-24T00:19:45.055Z,,,8049.678000000014,completion,,"[""comb"",""flower"",""flag"",""moon"",""pencil"",""owl"",""apple""]",,,,,,,"[""pencil"",""apple"",""owl"",""flower""]",4,,,,,,327709.99999996275,15000,327696.438,319613.428,319623.9999998361,319646.76,327746.436,delayed,experimental,
,Visor Instruction for delay,canvas.Screen,5_1_5_2,2018-11-24T00:20:00.089Z,,,15032.732000000018,timeout,,,,,,,,,"[""pencil"",""apple"",""owl"",""flower""]",4,,,,,,342743.00000001676,15000,342729.17,327729.77,327710.99999989383,327746.436,342779.168,delayed,experimental,
,Recall,html.Screen,5_1_5_3,2018-11-24T00:20:08.303Z,,,8177.831999936665,done,,"[""comb"",""flag"",""moon"",""pencil"",""apple"",""owl"",""flower""]",,,,,,"[""pencil"",""apple"",""owl"",""moon""]","[""pencil"",""apple"",""owl"",""flower""]",4,,,,,,350956.99999993667,15000,350956.99999993667,342729.17,342743.00000001676,342779.168,350995.506,delayed,experimental,
,Trial sequence for Recall,flow.Sequence,5_1_5,2018-11-24T00:20:08.303Z,,,36043.38399993669,completion,,,,,,,,,"[""pencil"",""apple"",""owl"",""flower""]",4,,,,,,350956.99999993667,15000,350956.99999993667,314880.284,314891.99999999255,314913.616,350995.506,delayed,experimental,
,Get-set-go,html.Screen,5_1_6_0,2018-11-24T00:20:09.871Z,,,1529.4939999068738,response,,,,,,,continue,,"[""pencil"",""moon"",""comb"",""apple"",""flower""]",5,,,,,,352524.99999990687,15000,352524.99999990687,350945.508,350956.99999993667,350995.506,352562.11,delayed,experimental,
,Learning phase,flow.Loop,5_1_6_1,2018-11-24T00:20:20.005Z,,,10082.929999999993,completion,,"[""owl"",""pencil"",""flower"",""flag"",""apple"",""moon"",""comb""]",,,,,,,"[""pencil"",""moon"",""comb"",""apple"",""flower""]",5,,,,,,362658.9999999851,15000,362645.04,352512.112,352524.99999990687,352562.11,362695.038,delayed,experimental,
,Visor Instruction for delay,canvas.Screen,5_1_6_2,2018-11-24T00:20:35.038Z,,,15049.397999999986,timeout,,,,,,,,,"[""pencil"",""moon"",""comb"",""apple"",""flower""]",5,,,,,,377692.0000000391,15000,377677.772,362678.372,362659.9999999162,362695.038,377744.436,delayed,experimental,
,Recall,html.Screen,5_1_6_3,2018-11-24T00:20:41.052Z,,,5961.564000005601,done,,"[""moon"",""apple"",""flag"",""pencil"",""owl"",""flower"",""comb""]",,,,,,"[""pencil"",""moon"",""comb"",""apple"",""flower""]","[""pencil"",""moon"",""comb"",""apple"",""flower""]",5,,,,,,383706.0000000056,15000,383706.0000000056,377677.772,377692.9999999702,377744.436,383727.53,delayed,experimental,
,Trial sequence for Recall,flow.Sequence,5_1_6,2018-11-24T00:20:41.052Z,,,32710.494000005594,completion,,,,,,,,,"[""pencil"",""moon"",""comb"",""apple"",""flower""]",5,,,,,,383706.0000000056,15000,383706.0000000056,350945.508,350956.99999993667,350995.506,383727.53,delayed,experimental,
,Get-set-go,html.Screen,5_1_7_0,2018-11-24T00:20:42.417Z,,,1343.4699999962468,response,,,,,,,continue,,"[""flower"",""apple"",""pencil"",""comb"",""owl""]",5,,,,,,385070.9999999963,15000,385070.9999999963,383694.198,383706.0000000056,383727.53,385110.808,delayed,experimental,
,Learning phase,flow.Loop,5_1_7_1,2018-11-24T00:20:52.520Z,,,10049.597999999998,completion,,"[""apple"",""flower"",""flag"",""comb"",""moon"",""owl"",""pencil""]",,,,,,,"[""flower"",""apple"",""pencil"",""comb"",""owl""]",5,,,,,,395173.99999988265,15000,395160.406,385060.81,385070.9999999963,385110.808,395210.404,delayed,experimental,
,Visor Instruction for delay,canvas.Screen,5_1_7_2,2018-11-24T00:21:07.553Z,,,15016.065999999992,timeout,,,,,,,,,"[""flower"",""apple"",""pencil"",""comb"",""owl""]",5,,,,,,410206.99999993667,15000,410193.138,395193.738,395175.00000004657,395210.404,410226.47,delayed,experimental,
,Recall,html.Screen,5_1_7_3,2018-11-24T00:21:13.436Z,,,5863.529999851016,done,,"[""comb"",""apple"",""owl"",""flag"",""flower"",""moon"",""pencil""]",,,,,,"[""flower"",""apple"",""pencil"",""comb"",""owl""]","[""flower"",""apple"",""pencil"",""comb"",""owl""]",5,,,,,,416089.999999851,15000,416089.999999851,410193.138,410206.99999993667,410226.47,416142.9,delayed,experimental,
,Trial sequence for Recall,flow.Sequence,5_1_7,2018-11-24T00:21:13.436Z,,,32362.46999985096,completion,,,,,,,,,"[""flower"",""apple"",""pencil"",""comb"",""owl""]",5,,,,,,416089.999999851,15000,416089.999999851,383694.198,383706.0000000056,383727.53,416142.9,delayed,experimental,
,Picture span task,flow.Loop,5_1,2018-11-24T00:21:13.436Z,,,242970.711999851,completion,,,,,,,,,,,,,,,,416089.999999851,15000,416089.999999851,173085.956,173101.0000000242,173119.288,416142.9,delayed,,
,Counterbalancing Loop,flow.Loop,5,2018-11-24T00:21:13.436Z,,,363332.563999851,completion,,,,,,,,,,,,,,,,416089.999999851,,416089.999999851,52724.104,52733.00000000745,52757.436,416142.9,,,
,Strategy,html.Form,6,2018-11-24T00:21:44.514Z,,,31025.099999830476,form submission,,,,,,,,,,,false,false,false,false,I love a parade.,447167.9999998305,,447167.9999998305,416076.236,416089.999999851,416142.9,447191.658,,,
,Picture Presentation,html.Screen,7_0_0,2018-11-24T00:21:50.885Z,,,6346.341999942262,response,,,,,,apple,yes,,,,,,,,,453540.00000003725,,453537.99999994226,447158.326,447167.9999998305,447191.658,453574.736,,picture naming,
,(Optional) naming,html.Form,7_0_1,2018-11-24T00:21:50.885Z,,,NaN,skipped,,,,,,apple,,,,,,,,,,453540.00000003725,,453537.99999994226,,453540.00000003725,,453574.736,,picture naming,
,Naming trial,flow.Sequence,7_0,2018-11-24T00:21:50.885Z,,,6346.341999942262,completion,,,,,,apple,,,,,,,,,,453540.00000003725,,453537.99999994226,447158.326,447167.9999998305,447191.658,453574.736,,picture naming,
,Picture Presentation,html.Screen,7_1_0,2018-11-24T00:21:51.380Z,,,443.26399992365623,response,,,,,,flag,yes,,,,,,,,,454033.9999999851,,454017.99999992363,453524.738,453540.00000003725,453574.736,454058.05,,picture naming,
,(Optional) naming,html.Form,7_1_1,2018-11-24T00:21:51.380Z,,,NaN,skipped,,,,,,flag,,,,,,,,,,454033.9999999851,,454017.99999992363,,454033.9999999851,,454058.05,,picture naming,
,Naming trial,flow.Sequence,7_1,2018-11-24T00:21:51.380Z,,,443.26399992365623,completion,,,,,,flag,,,,,,,,,,454033.9999999851,,454017.99999992363,453524.738,453540.00000003725,453574.736,454058.05,,picture naming,
,Picture Presentation,html.Screen,7_2_0,2018-11-24T00:21:51.852Z,,,431.9499999906984,response,,,,,,comb,yes,,,,,,,,,454506.00000005215,,454489.9999999907,454024.718,454033.9999999851,454058.05,454508.032,,picture naming,
,(Optional) naming,html.Form,7_2_1,2018-11-24T00:21:51.852Z,,,NaN,skipped,,,,,,comb,,,,,,,,,,454506.00000005215,,454489.9999999907,,454506.00000005215,,454508.032,,picture naming,
,Naming trial,flow.Sequence,7_2,2018-11-24T00:21:51.852Z,,,431.9499999906984,completion,,,,,,comb,,,,,,,,,,454506.00000005215,,454489.9999999907,454024.718,454033.9999999851,454058.05,454508.032,,picture naming,
,Picture Presentation,html.Screen,7_3_0,2018-11-24T00:21:52.278Z,,,423.9680000297958,response,,,,,,owl,yes,,,,,,,,,454932.0000000298,,454932.0000000298,454491.366,454506.00000005215,454508.032,454958.014,,picture naming,
,(Optional) naming,html.Form,7_3_1,2018-11-24T00:21:52.294Z,,,NaN,skipped,,,,,,owl,,,,,,,,,,454947.99999985844,,454932.0000000298,,454947.99999985844,,454958.014,,picture naming,
,Naming trial,flow.Sequence,7_3,2018-11-24T00:21:52.294Z,,,423.9680000297958,completion,,,,,,owl,,,,,,,,,,454947.99999985844,,454932.0000000298,454491.366,454506.00000005215,454508.032,454958.014,,picture naming,
,Picture Presentation,html.Screen,7_4_0,2018-11-24T00:21:52.731Z,,,425.9859998453758,response,,,,,,moon,yes,,,,,,,,,455385.0000000093,,455383.9999998454,454941.348,454947.99999985844,454958.014,455391.33,,picture naming,
,(Optional) naming,html.Form,7_4_1,2018-11-24T00:21:52.733Z,,,NaN,skipped,,,,,,moon,,,,,,,,,,455386.9999998715,,455383.9999998454,,455385.9999999404,,455391.33,,picture naming,
,Naming trial,flow.Sequence,7_4,2018-11-24T00:21:52.733Z,,,425.9859998453758,completion,,,,,,moon,,,,,,,,,,455386.9999998715,,455383.9999998454,454941.348,454947.99999985844,454958.014,455391.33,,picture naming,
,Picture Presentation,html.Screen,7_5_0,2018-11-24T00:21:53.177Z,,,439.67000000557164,response,,,,,,pencil,yes,,,,,,,,,455831.0000000056,,455831.0000000056,455374.664,455388.0000000354,455391.33,455841.312,,picture naming,
,(Optional) naming,html.Form,7_5_1,2018-11-24T00:21:53.177Z,,,NaN,skipped,,,,,,pencil,,,,,,,,,,455831.0000000056,,455831.0000000056,,455831.0000000056,,455841.312,,picture naming,
,Naming trial,flow.Sequence,7_5,2018-11-24T00:21:53.177Z,,,439.67000000557164,completion,,,,,,pencil,,,,,,,,,,455831.0000000056,,455831.0000000056,455374.664,455386.9999998715,455391.33,455841.312,,picture naming,
,Picture Presentation,html.Screen,7_6_0,2018-11-24T00:21:53.746Z,,,558.6879999068915,response,,,,,,flower,yes,,,,,,,,,456399.99999990687,,456399.99999990687,455824.646,455831.0000000056,455841.312,456424.622,,picture naming,
,(Optional) naming,html.Form,7_6_1,2018-11-24T00:21:53.746Z,,,NaN,skipped,,,,,,flower,,,,,,,,,,456399.99999990687,,456399.99999990687,,456399.99999990687,,456424.622,,picture naming,
,Naming trial,flow.Sequence,7_6,2018-11-24T00:21:53.746Z,,,558.6879999068915,completion,,,,,,flower,,,,,,,,,,456399.99999990687,,456399.99999990687,455824.646,455831.0000000056,455841.312,456424.622,,picture naming,
,Picture Naming,flow.Loop,7,2018-11-24T00:21:53.746Z,,,9208.341999906872,completion,,,,,,,,,,,,,,,,456399.99999990687,,456399.99999990687,447158.326,447167.9999998305,447191.658,456424.622,,,
,Get-set-go,html.Screen,8_0_0,2018-11-24T00:21:58.783Z,,,5013.377999849152,response,,,,,,,continue,,"[""apple"",""flag""]",2,,,,,,461437.9999998491,,461437.9999998491,456391.29,456399.99999990687,456424.622,461474.42,,point and name,
,Learning phase,flow.Loop,8_0_1,2018-11-24T00:22:01.850Z,,,3016.546000000031,completion,,"[""flag"",""comb"",""pencil"",""moon"",""flower"",""owl"",""apple""]",,,,,,,"[""apple"",""flag""]",2,,,,,,464503.99999995716,,464490.966,461424.422,461437.9999998491,461474.42,464574.296,,point and name,
,Visor Instruction for delay,canvas.Screen,8_0_2,2018-11-24T00:22:16.918Z,,,15066.064000000013,timeout,,,,,,,,,"[""apple"",""flag""]",2,,,,,,479571.99999992736,,479557.03,464557.63,464503.99999995716,464574.296,479640.36,,point and name,
,Recall,html.Screen,8_0_3,2018-11-24T00:22:25.265Z,,,8279.639999925508,done,,"[""moon"",""apple"",""flower"",""pencil"",""flag"",""comb"",""owl""]",,,,,,"[""flag""]","[""apple"",""flag""]",2,,,,,,487919.9999999255,,487919.9999999255,479557.03,479572.99999985844,479640.36,487973.36,,point and name,
,Trial sequence for Point and Name,flow.Sequence,8_0,2018-11-24T00:22:25.280Z,,,31495.37799992552,completion,,,,,,,,,"[""apple"",""flag""]",2,,,,,,487935.0000000559,,487919.9999999255,456391.29,456399.99999990687,456424.622,487973.36,,point and name,
,Get-set-go,html.Screen,8_1_0,2018-11-24T00:22:27.688Z,,,2366.6399998510024,response,,,,,,,continue,,"[""moon"",""flower""]",2,,,,,,490341.999999946,,490339.999999851,487906.696,487935.0000000559,487973.36,490356.598,,point and name,
,Learning phase,flow.Loop,8_1_1,2018-11-24T00:22:30.698Z,,,2983.213999999978,completion,,"[""apple"",""flower"",""comb"",""pencil"",""moon"",""owl"",""flag""]",,,,,,,"[""moon"",""flower""]",2,,,,,,493352.9999998864,,493339.812,490339.932,490341.999999946,490356.598,493389.81,,point and name,
,Visor Instruction for delay,canvas.Screen,8_1_2,2018-11-24T00:22:45.731Z,,,15049.397999999986,timeout,,,,,,,,,"[""moon"",""flower""]",2,,,,,,508385.9999999404,,508372.544,493373.144,493354.0000000503,493389.81,508439.208,,point and name,
,Recall,html.Screen,8_1_3,2018-11-24T00:22:49.913Z,,,4127.792000039131,done,,"[""pencil"",""apple"",""flag"",""comb"",""flower"",""moon"",""owl""]",,,,,,"[""moon"",""flower""]","[""moon"",""flower""]",2,,,,,,512567.0000000391,,512567.0000000391,508372.544,508385.9999999404,508439.208,512605.708,,point and name,
,Trial sequence for Point and Name,flow.Sequence,8_1,2018-11-24T00:22:49.913Z,,,24593.64000003913,completion,,,,,,,,,"[""moon"",""flower""]",2,,,,,,512567.0000000391,,512567.0000000391,487906.696,487935.0000000559,487973.36,512605.708,,point and name,
,Get-set-go,html.Screen,8_2_0,2018-11-24T00:22:51.947Z,,,1995.2920000242302,response,,,,,,,continue,,"[""flower"",""moon"",""apple""]",3,,,,,,514601.0000000242,,514601.0000000242,512555.71,512567.0000000391,512605.708,514655.626,,point and name,
,Learning phase,flow.Loop,8_2_1,2018-11-24T00:22:56.547Z,,,4533.152000000002,completion,,"[""owl"",""moon"",""apple"",""pencil"",""comb"",""flower"",""flag""]",,,,,,,"[""flower"",""moon"",""apple""]",3,,,,,,519202.0000000484,,519188.778,514605.628,514601.0000000242,514655.626,519272.108,,point and name,
,Visor Instruction for delay,canvas.Screen,8_2_2,2018-11-24T00:23:11.614Z,,,15032.73199999996,timeout,,,,,,,,,"[""flower"",""moon"",""apple""]",3,,,,,,534268.9999998547,,534254.842,519238.776,519202.9999999795,519272.108,534304.84,,point and name,
,Recall,html.Screen,8_2_3,2018-11-24T00:23:14.829Z,,,3179.1599999385653,done,,"[""apple"",""comb"",""flag"",""owl"",""flower"",""pencil"",""moon""]",,,,,,"[""pencil"",""moon"",""flower""]","[""flower"",""moon"",""apple""]",3,,,,,,537483.9999999385,,537483.9999999385,534254.842,534268.9999998547,534304.84,537521.378,,point and name,
,Trial sequence for Point and Name,flow.Sequence,8_2,2018-11-24T00:23:14.829Z,,,24878.29199993855,completion,,,,,,,,,"[""flower"",""moon"",""apple""]",3,,,,,,537483.9999999385,,537483.9999999385,512555.71,512567.0000000391,512605.708,537521.378,,point and name,
,Get-set-go,html.Screen,8_3_0,2018-11-24T00:23:16.112Z,,,1245.6219999925233,response,,,,,,,continue,,"[""flag"",""pencil"",""flower""]",3,,,,,,538766.9999999925,,538766.9999999925,537471.38,537483.9999999385,537521.378,538771.328,,point and name,
,Learning phase,flow.Loop,8_3_1,2018-11-24T00:23:20.663Z,,,4533.152000000002,completion,,"[""flag"",""flower"",""moon"",""pencil"",""apple"",""comb"",""owl""]",,,,,,,"[""flag"",""pencil"",""flower""]",3,,,,,,543317.9999999702,,543304.48,538754.662,538766.9999999925,538771.328,543354.478,,point and name,
,Visor Instruction for delay,canvas.Screen,8_3_2,2018-11-24T00:23:35.696Z,,,15032.73199999996,timeout,,,,,,,,,"[""flag"",""pencil"",""flower""]",3,,,,,,558351.0000000242,,558337.212,543337.812,543318.9999999013,543354.478,558387.21,,point and name,
,Recall,html.Screen,8_3_3,2018-11-24T00:23:44.942Z,,,9208.78999990318,done,,"[""apple"",""owl"",""flag"",""moon"",""flower"",""comb"",""pencil""]",,,,,,"[""flag"",""pencil"",""owl""]","[""flag"",""pencil"",""flower""]",3,,,,,,567595.9999999031,,567595.9999999031,558337.212,558351.9999999553,558387.21,567653.506,,point and name,
,Trial sequence for Point and Name,flow.Sequence,8_3,2018-11-24T00:23:44.942Z,,,30074.621999903116,completion,,,,,,,,,"[""flag"",""pencil"",""flower""]",3,,,,,,567595.9999999031,,567595.9999999031,537471.38,537483.9999999385,537521.378,567653.506,,point and name,
,Get-set-go,html.Screen,8_4_0,2018-11-24T00:23:46.428Z,,,1428.493999936618,response,,,,,,,continue,,"[""flag"",""comb"",""pencil"",""flower""]",4,,,,,,569081.9999999367,,569081.9999999367,567586.842,567595.9999999031,567653.506,569120.114,,point and name,
,Learning phase,flow.Loop,8_4_1,2018-11-24T00:23:52.563Z,,,6083.090000000084,completion,,"[""comb"",""apple"",""flower"",""pencil"",""moon"",""flag"",""owl""]",,,,,,,"[""flag"",""comb"",""pencil"",""flower""]",4,,,,,,575216.999999946,,575203.204,569070.116,569081.9999999367,569120.114,575253.202,,point and name,
,Visor Instruction for delay,canvas.Screen,8_4_2,2018-11-24T00:24:07.596Z,,,15049.397999999928,timeout,,,,,,,,,"[""flag"",""comb"",""pencil"",""flower""]",4,,,,,,590250.9999999311,,590235.936,575236.536,575217.9999998771,575253.202,590302.6,,point and name,
,Recall,html.Screen,8_4_3,2018-11-24T00:24:14.719Z,,,7070.399999905028,done,,"[""flag"",""comb"",""apple"",""owl"",""flower"",""pencil"",""moon""]",,,,,,"[""flag"",""comb"",""pencil"",""flower""]","[""flag"",""comb"",""pencil"",""flower""]",4,,,,,,597373.9999998361,,597372.999999905,590235.936,590250.9999999311,590302.6,597418.982,,point and name,
,Trial sequence for Point and Name,flow.Sequence,8_4,2018-11-24T00:24:14.720Z,,,29719.493999904953,completion,,,,,,,,,"[""flag"",""comb"",""pencil"",""flower""]",4,,,,,,597375,,597372.999999905,567586.842,567595.9999999031,567653.506,597418.982,,point and name,
,Get-set-go,html.Screen,8_5_0,2018-11-24T00:24:16.176Z,,,1412.018000005628,response,,,,,,,continue,,"[""flag"",""comb"",""moon"",""pencil""]",4,,,,,,598831.0000000056,,598831.0000000056,597368.984,597375,597418.982,598885.59,,point and name,
,Learning phase,flow.Loop,8_5_1,2018-11-24T00:24:22.328Z,,,6083.090000000084,completion,,"[""apple"",""flower"",""moon"",""owl"",""comb"",""pencil"",""flag""]",,,,,,,"[""flag"",""comb"",""moon"",""pencil""]",4,,,,,,604981.9999998435,,604968.68,598818.926,598831.0000000056,598885.59,605018.678,,point and name,
,Visor Instruction for delay,canvas.Screen,8_5_2,2018-11-24T00:24:37.360Z,,,15032.732000000076,timeout,,,,,,,,,"[""flag"",""comb"",""moon"",""pencil""]",4,,,,,,620014.9999998976,,620001.412,605002.012,604983.0000000075,605018.678,620051.41,,point and name,
,Recall,html.Screen,8_5_3,2018-11-24T00:24:42.991Z,,,5594.589999949676,done,,"[""flag"",""owl"",""flower"",""moon"",""pencil"",""apple"",""comb""]",,,,,,"[""flag"",""comb"",""moon"",""pencil""]","[""flag"",""comb"",""moon"",""pencil""]",4,,,,,,625645.9999999497,,625645.9999999497,620001.412,620014.9999998976,620051.41,625701.184,,point and name,
,Trial sequence for Point and Name,flow.Sequence,8_5,2018-11-24T00:24:42.991Z,,,28227.01799994975,completion,,,,,,,,,"[""flag"",""comb"",""moon"",""pencil""]",4,,,,,,625645.9999999497,,625645.9999999497,597368.984,597375,597418.982,625701.184,,point and name,
,Get-set-go,html.Screen,8_6_0,2018-11-24T00:24:44.191Z,,,1144.815999903134,response,,,,,,,continue,,"[""flag"",""apple"",""comb"",""owl"",""flower""]",5,,,,,,626845.9999999031,,626845.9999999031,625634.52,625645.9999999497,625701.184,626884.47,,point and name,
,Learning phase,flow.Loop,8_6_1,2018-11-24T00:24:51.844Z,,,7599.695999999996,completion,,"[""flag"",""pencil"",""owl"",""apple"",""flower"",""comb"",""moon""]",,,,,,,"[""flag"",""apple"",""comb"",""owl"",""flower""]",5,,,,,,634497.999999905,,634484.166,626834.472,626845.9999999031,626884.47,634550.83,,point and name,
,Visor Instruction for delay,canvas.Screen,8_6_2,2018-11-24T00:25:06.893Z,,,15032.732000000076,timeout,,,,,,,,,"[""flag"",""apple"",""comb"",""owl"",""flower""]",5,,,,,,649547.0000000205,,649533.564,634517.498,634498.9999998361,634550.83,649583.562,,point and name,
,Recall,html.Screen,8_6_3,2018-11-24T00:25:19.589Z,,,12659.43800001673,done,,"[""flower"",""pencil"",""apple"",""moon"",""flag"",""comb"",""owl""]",,,,,,"[""comb"",""flag"",""moon"",""apple"",""pencil""]","[""flag"",""apple"",""comb"",""owl"",""flower""]",5,,,,,,662243.0000000168,,662243.0000000168,649533.564,649547.9999999516,649583.562,662283.054,,point and name,
,Trial sequence for Point and Name,flow.Sequence,8_6,2018-11-24T00:25:19.589Z,,,36541.816000016755,completion,,,,,,,,,"[""flag"",""apple"",""comb"",""owl"",""flower""]",5,,,,,,662243.0000000168,,662243.0000000168,625634.52,625645.9999999497,625701.184,662283.054,,point and name,
,Get-set-go,html.Screen,8_7_0,2018-11-24T00:25:23.712Z,,,4080.9459998267703,response,,,,,,,continue,,"[""flag"",""apple"",""comb"",""pencil"",""owl""]",5,,,,,,666365.9999999218,,666363.9999998268,662233.056,662243.0000000168,662283.054,666399.556,,point and name,
,Learning phase,flow.Loop,8_7_1,2018-11-24T00:25:31.342Z,,,7583.030000000028,completion,,"[""flower"",""moon"",""owl"",""apple"",""flag"",""comb"",""pencil""]",,,,,,,"[""flag"",""apple"",""comb"",""pencil"",""owl""]",5,,,,,,673996.0000000428,,673982.586,666349.558,666365.9999999218,666399.556,674049.25,,point and name,
,Visor Instruction for delay,canvas.Screen,8_7_2,2018-11-24T00:25:46.391Z,,,15016.065999999992,timeout,,,,,,,,,"[""flag"",""apple"",""comb"",""pencil"",""owl""]",5,,,,,,689044.9999999255,,689031.984,674032.584,673996.9999999739,674049.25,689065.316,,point and name,
,Recall,html.Screen,8_7_3,2018-11-24T00:25:52.590Z,,,6178.683999947854,done,,"[""pencil"",""apple"",""owl"",""moon"",""flower"",""flag"",""comb""]",,,,,,"[""comb"",""flag"",""flower"",""moon"",""owl""]","[""flag"",""apple"",""comb"",""pencil"",""owl""]",5,,,,,,695243.9999999478,,695243.9999999478,689031.984,689044.9999999255,689065.316,695331.732,,point and name,
,Trial sequence for Point and Name,flow.Sequence,8_7,2018-11-24T00:25:52.590Z,,,32960.94599994784,completion,,,,,,,,,"[""flag"",""apple"",""comb"",""pencil"",""owl""]",5,,,,,,695243.9999999478,,695243.9999999478,662233.056,662243.0000000168,662283.054,695331.732,,point and name,
,Point and Name task,flow.Loop,8,2018-11-24T00:25:52.590Z,,,238819.37799994787,completion,,,,,,,,,,,,,,,,695243.9999999478,,695243.9999999478,456391.29,456399.99999990687,456424.622,695331.732,,,
,Goodbye Screen,canvas.Screen,9,2018-11-24T00:25:57.025Z,,,4348.2679999348475,response,,,,,,,exit screen,,,,,,,,,699679.9999999348,,699679.9999999348,695231.736,695243.9999999478,695331.732,699681.558,,,
,root,flow.Sequence,,2018-11-24T00:25:57.025Z,,,699087.1439999348,completion,,,,,,,,,,,,,,,,699679.9999999348,,699679.9999999348,542.858,575.999999884516,592.856,699681.558,,,